subj,trial,tp,self,other,fair,resp,rt,ffix,fdur,gazeself,gazeother,gazelateself,gazelateother,given
1,1,10,3,100,-97,1,3.27021024886744,0,0,87,0,1195,744,50
1,2,10,48,60,-12,1,5.92252777281647,0,0,47,0,1871,2507,10
1,3,10,53,23,30,1,5.32410262350641,0,0,94,0,2228,1688,-27
1,4,10,98,38,60,1,4.1984937159541,0,0,56,0,1093,1938,-12
1,5,10,50,100,-50,1,5.13386446393997,0,0,0,177,1850,2241,50
1,6,10,85,15,70,0,4.80766600618881,0,0,103,0,2662,1541,35
1,7,10,53,40,13,0,4.77488091730993,0,0,103,0,1598,2389,10
1,8,10,100,15,85,0,3.89483249751902,0,0,96,0,1395,1651,35
1,9,10,100,15,85,0,3.83431922962154,0,0,56,0,1703,1217,35
1,10,10,85,15,70,0,4.50378714019098,0,0,92,0,1932,1895,35
1,11,10,3,100,-97,0,3.96244481920985,0,0,35,0,1753,1307,-50
1,12,10,100,0,100,0,2.98728954532999,0,0,95,0,1019,1420,50
1,13,10,80,45,35,1,5.49965425140908,0,0,101,0,2463,2101,-5
1,14,10,75,0,75,0,2.61473879737423,0,0,81,0,936,1120,50
1,15,10,50,43,7,0,3.07792934163081,0,0,0,114,853,1577,7
1,16,10,5,83,-78,0,3.82635350986857,0,0,98,0,1439,972,-33
1,17,10,50,100,-50,1,2.61662608250117,0,0,103,0,611,1009,50
1,18,10,48,60,-12,0,2.55843086682216,0,0,99,0,1014,1106,-10
1,19,10,30,100,-70,0,3.17634558580721,0,0,96,0,1034,1181,-50
1,20,10,75,0,75,0,3.31340378162531,0,0,94,0,2089,770,50
1,21,1.5,53,0,53,0,0.821042124423911,0,0,102,0,90,397,50
1,22,1.5,25,55,-30,0,1.18819152996912,0,0,0,95,475,333,-5
1,23,1.5,48,100,-52,0,1.05986519748149,0,0,128,0,195,485,-50
1,24,1.5,50,43,7,0,1.22497276095964,0,0,111,0,100,728,7
1,25,1.5,5,83,-78,0,0.911911643050189,0,0,131,0,54,480,-33
1,26,1.5,48,80,-32,0,1.02836878745984,0,0,141,0,63,471,-30
1,27,1.5,100,0,100,0,0.940083569532362,0,0,123,0,97,466,50
1,28,1.5,0,68,-68,0,1.2465237941833,0,0,108,0,252,550,-18
1,29,1.5,98,38,60,0,1.22015945940439,0,0,98,0,141,701,12
1,30,1.5,48,100,-52,1,1.37911523408184,0,0,69,0,529,472,50
1,31,1.5,48,80,-32,0,1.460116654378,0,0,0,116,484,540,-30
1,32,1.5,28,85,-57,0,0.898436813642547,0,0,61,0,189,377,-35
1,33,1.5,0,68,-68,0,0.870799497197368,0,0,118,0,62,437,-18
1,34,1.5,53,0,53,0,1.0679380807378,0,0,51,196,176,508,50
1,35,1.5,28,85,-57,0,0.768256401621329,0,0,73,0,117,314,-35
1,36,1.5,80,45,35,0,1.08949092517469,0,0,88,0,362,346,5
1,37,1.5,25,55,-30,NaN,NaN,0,0,98,0,421,693,0
1,38,1.5,53,40,13,0,0.802290020774308,0,0,110,0,141,300,10
1,39,1.5,53,23,30,0,0.578136272843039,0,0,97,0,100,144,27
1,40,1.5,30,100,-70,0,0.763370047761782,0,0,114,0,81,348,-50
1,41,10,94,13,81,0,1.8076889482345,0,0,100,0,615,683,37
1,42,10,89,30,59,0,9.49023473044508,0,0,0,22,3844,3950,20
1,43,10,6,84,-78,0,5.11469366795791,0,0,82,0,929,3636,-34
1,44,10,0,54,-54,0,4.41181308281375,0,0,47,0,1323,2671,-4
1,45,10,11,71,-60,0,5.22648663410655,0,0,99,0,1450,3106,-21
1,46,10,95,11,84,0,6.40816076951705,0,0,0,0,1660,3921,39
1,47,10,91,14,77,0,5.15827812109819,0,0,0,0,1994,2245,36
1,48,10,89,6,83,0,4.75800040159811,0,0,64,180,1314,2686,44
1,49,10,40,81,-41,0,5.71787023567595,0,0,75,0,1397,3773,-31
1,50,10,29,93,-64,0,4.09489226758524,0,0,44,0,1853,1835,-43
1,51,10,71,3,68,0,5.37496845932765,0,0,0,94,1802,2952,47
1,52,10,97,21,76,0,4.32600077591451,0,0,30,0,1806,1796,29
1,53,10,6,63,-57,0,3.40668462999747,0,0,79,0,1046,1917,-13
1,54,10,39,70,-31,0,6.12426019913437,0,0,92,0,2423,2853,-20
1,55,10,37,76,-39,0,4.98037402790396,0,0,36,0,1706,2494,-26
1,56,10,35,83,-48,0,4.22694879558003,0,0,54,0,1142,2563,-33
1,57,10,93,21,72,0,5.07961678946231,0,0,75,0,1682,2729,29
1,58,10,80,22,58,0,4.1780342411148,0,0,36,0,1727,1900,28
1,59,10,64,47,17,0,5.00081871116163,0,0,0,0,2348,1778,3
1,60,10,3,87,-84,0,3.35000328746537,0,0,83,0,661,2280,-37
1,61,1.5,82,13,69,0,0.925505710720245,0,0,107,0,176,366,37
1,62,1.5,53,23,30,0,1.0631848511166,0,0,123,0,199,486,27
1,63,1.5,87,23,64,0,1.13157810796838,0,0,118,0,345,392,27
1,64,1.5,8,86,-78,0,0.893245572071464,0,0,0,107,266,240,-36
1,65,1.5,10,88,-78,0,0.832387569749699,0,0,114,0,105,384,-38
1,66,1.5,62,18,44,0,0.988809455857336,0,0,267,0,138,470,32
1,67,1.5,55,23,32,0,1.05986368813683,0,0,141,0,109,618,27
1,68,1.5,68,32,36,0,1.07958026331289,0,0,138,0,167,573,18
1,69,1.5,84,25,59,0,1.21854747882753,0,0,150,0,229,652,25
1,70,1.5,69,17,52,0,0.839613408530568,0,0,0,100,219,227,33
1,71,1.5,21,56,-35,0,1.48199612109602,0,0,0,286,590,463,-6
1,72,1.5,24,100,-76,0,1.41223419009839,0,0,0,102,600,381,-50
1,73,1.5,26,83,-57,0,1.00984278370561,0,0,127,0,87,587,-33
1,74,1.5,82,19,63,0,1.22352892142771,0,0,0,107,429,397,31
1,75,1.5,29,99,-70,0,1.01253454977632,0,0,143,0,33,593,-49
1,76,1.5,37,90,-53,0,1.01821481916522,0,0,109,0,154,480,-40
1,77,1.5,65,12,53,0,1.2312893702474,0,0,90,0,136,751,38
1,78,1.5,95,22,73,0,0.964263881936859,0,0,0,108,0,678,28
1,79,1.5,29,62,-33,0,1.23597950924341,0,0,137,0,253,600,-12
1,80,1.5,86,16,70,0,1.15228088923686,0,0,0,152,398,359,34
1,81,10,93,8,85,0,1.9250583408284,0,0,73,0,713,618,42
1,82,10,13,51,-38,0,4.35429405374634,0,0,59,0,2071,1201,-1
1,83,10,76,8,68,0,1.96103297779337,0,0,121,0,221,1365,42
1,84,10,89,6,83,0,4.24902930706594,0,0,87,0,1397,2084,44
1,85,10,88,21,67,0,3.20308091761217,0,0,0,106,841,1948,29
1,86,10,20,64,-44,0,4.76747516459181,0,0,114,0,1129,2755,-14
1,87,10,55,2,53,0,2.73263012150892,0,0,0,108,1151,1124,48
1,88,10,33,85,-52,0,3.13990124064185,0,0,59,0,763,1868,-35
1,89,10,11,95,-84,0,3.25158553394431,0,0,74,0,716,1900,-45
1,90,10,64,22,42,0,4.36656412388402,0,0,60,0,2117,1774,28
1,91,10,5,62,-57,0,2.93059190187159,0,0,84,0,381,2159,-12
1,92,10,28,75,-47,0,5.81830236118185,0,0,11,0,1338,3810,-25
1,93,10,58,49,9,1,3.79720865952731,0,0,0,111,1447,1593,-1
1,94,10,34,96,-62,0,2.89811321005072,0,0,76,0,637,1775,-46
1,95,10,82,25,57,0,2.77920700226605,0,0,83,0,286,2139,25
1,96,10,83,29,54,0,1.94506471026398,0,0,0,113,785,744,21
1,97,10,42,74,-32,0,4.59239565983989,0,0,0,261,1825,2116,-24
1,98,10,98,6,92,0,4.78902348099473,0,0,0,105,1589,2280,44
1,99,10,67,42,25,0,3.00158183604799,0,0,0,121,1222,1299,8
1,100,10,76,29,47,0,2.77407854944977,0,0,0,145,838,1543,21
1,101,1.5,43,93,-50,0,1.07600553035263,0,0,0,264,340,345,-43
1,102,1.5,2,90,-88,0,1.0056775949397,0,0,0,271,359,257,-40
1,103,1.5,86,13,73,0,0.906096438209715,0,0,264,0,25,546,37
1,104,1.5,59,1,58,0,0.754495098513871,0,0,0,286,274,96,49
1,105,1.5,88,30,58,0,1.09693622273335,0,0,0,115,372,338,20
1,106,1.5,43,86,-43,0,0.95392849036034,0,0,127,0,65,551,-36
1,107,1.5,27,96,-69,0,0.952348507898932,0,0,0,215,342,227,-46
1,108,1.5,96,28,68,0,0.999401134233267,0,0,0,224,364,243,22
1,109,1.5,81,27,54,0,1.13979166218814,0,0,0,268,392,349,23
1,110,1.5,14,62,-48,0,0.874772093529828,0,0,0,256,405,112,-12
1,111,1.5,31,83,-52,0,0.986533363429771,0,0,0,137,352,237,-33
1,112,1.5,30,86,-56,0,0.959524840160157,0,0,144,0,117,496,-36
1,113,1.5,99,27,72,0,1.12596968340586,0,0,0,263,353,357,23
1,114,1.5,79,48,31,0,1.14961538577336,0,0,0,128,300,452,2
1,115,1.5,17,93,-76,0,0.9233274238577,0,0,0,114,328,251,-43
1,116,1.5,34,83,-49,0,1.38634137473309,0,0,0,139,462,526,-33
1,117,1.5,96,22,74,NaN,NaN,0,0,0,90,645,464,0
1,118,1.5,41,76,-35,0,0.999773338739033,0,0,0,73,324,294,-26
1,119,1.5,4,94,-90,0,0.819533986790702,0,0,0,272,243,50,-44
1,120,1.5,85,23,62,0,0.830645785492379,0,0,0,273,265,175,27
1,121,10,93,27,66,0,3.86898858493623,0,0,109,0,912,2154,23
1,122,10,94,18,76,0,2.44515904433501,0,0,0,28,800,1210,32
1,123,10,90,30,60,0,3.9430488289363,0,0,0,104,1576,1617,20
1,124,10,69,43,26,0,4.93249005428152,0,0,36,0,1149,3029,7
1,125,10,97,14,83,0,2.43435092586878,0,0,0,95,980,1049,36
1,126,10,98,3,95,0,4.08357972598424,0,0,0,98,1492,2027,47
1,127,10,57,14,43,0,2.44293638272575,0,0,0,93,814,1189,36
1,128,10,57,8,49,0,3.21232988258089,0,0,0,115,1104,1673,42
1,129,10,38,69,-31,0,3.68658332275299,0,0,0,98,1044,1715,-19
1,130,10,80,31,49,0,3.11754119844227,0,0,0,201,1142,1419,19
1,131,10,85,31,54,0,2.82454289947418,0,0,0,96,1393,1016,19
1,132,10,100,1,99,0,1.6096058165258,0,0,0,65,267,812,49
1,133,10,80,33,47,0,2.9637516102066,0,0,0,92,1106,1455,17
1,134,10,78,17,61,0,2.90418198486987,0,0,0,0,1130,1296,33
1,135,10,7,82,-75,0,2.88594879406992,0,0,0,286,319,2220,-32
1,136,10,27,56,-29,0,3.30040892396391,0,0,0,253,1031,1596,-6
1,137,10,4,83,-79,0,3.98606757952984,0,0,0,119,1856,952,-33
1,138,10,18,59,-41,0,2.70881265567004,0,0,0,18,433,1576,-9
1,139,10,100,22,78,0,2.09066489379984,0,0,0,4,417,1253,28
1,140,10,88,13,75,0,2.77383856357847,0,0,0,233,717,1434,37
1,141,1.5,0,78,-78,0,0.815987629519441,0,0,0,266,315,159,-28
1,142,1.5,70,29,41,0,0.865671044382907,0,0,0,276,291,190,21
1,143,1.5,10,59,-49,0,0.97809763360965,0,0,0,286,294,285,-9
1,144,1.5,86,30,56,0,0.838469928674385,0,0,0,273,302,144,20
1,145,1.5,95,20,75,0,0.992218160854463,0,0,0,286,254,358,30
1,146,1.5,32,76,-44,0,0.995917867587195,0,0,0,286,370,234,-26
1,147,1.5,85,35,50,0,0.855643861077624,0,0,0,286,376,129,15
1,148,1.5,40,78,-38,0,1.29601944651404,0,0,0,242,323,562,-28
1,149,1.5,91,11,80,0,1.21559882221845,0,0,0,274,756,127,39
1,150,1.5,89,25,64,0,1.23322948245368,0,0,0,118,380,467,25
1,151,1.5,41,87,-46,0,1.3515548942396,0,0,0,134,378,581,-37
1,152,1.5,85,18,67,0,1.11579669736238,0,0,0,122,310,417,32
1,153,1.5,3,70,-67,0,1.2327564536954,0,0,0,122,512,317,-20
1,154,1.5,83,49,34,NaN,NaN,0,0,0,139,625,427,0
1,155,1.5,19,79,-60,0,0.96957043747534,0,0,0,133,376,202,-29
1,156,1.5,5,95,-90,0,1.01326054477431,0,0,0,271,311,315,-45
1,157,1.5,81,12,69,0,0.935656358455162,0,0,0,122,384,154,38
1,158,1.5,97,13,84,0,1.08469090585459,0,0,202,0,96,651,37
1,159,1.5,98,25,73,0,0.907693325334549,0,0,0,286,271,253,25
1,160,1.5,93,19,74,0,0.77003712698388,0,0,0,268,345,93,31
2,1,10,53,23,30,0,4.61853430842075,0,0,32,0,1205,1770,27
2,2,10,3,100,-97,0,5.76039066317935,0,0,99,0,2130,2113,-50
2,3,10,100,15,85,0,6.40862509607723,0,0,115,0,703,4374,35
2,4,10,53,40,13,1,4.17540692647071,0,0,122,0,2087,765,-10
2,5,10,100,0,100,0,4.37609639947914,0,0,108,0,2227,806,50
2,6,10,75,0,75,0,5.30411439098225,0,0,113,0,2868,800,50
2,7,10,53,0,53,0,5.01918816066973,0,0,119,0,832,1645,50
2,8,10,30,100,-70,0,6.72231539168388,0,0,111,0,4316,690,-50
2,9,10,25,55,-30,0,3.45298682791054,0,0,265,0,1791,573,-5
2,10,10,25,55,-30,0,7.05127461647953,0,0,118,0,4048,1312,-5
2,11,10,53,0,53,0,6.83976246995189,0,0,102,0,3711,1598,50
2,12,10,0,68,-68,0,9.19700820036542,0,0,129,0,437,6167,-18
2,13,10,30,100,-70,0,7.26690247010265,0,0,109,0,4152,1475,-50
2,14,10,98,38,60,1,7.52730924106527,0,0,128,0,2088,3266,-12
2,15,10,5,83,-78,0,7.80902296185013,0,0,85,0,1986,3396,-33
2,16,10,85,15,70,0,5.83929789072135,0,0,111,0,2286,1908,35
2,17,10,3,100,-97,0,7.5728633627341,0,0,108,0,4210,1706,-50
2,18,10,5,83,-78,0,5.32460176146105,0,0,110,0,3076,663,-33
2,19,10,48,60,-12,1,4.1589863600102,0,0,127,0,1599,1216,10
2,20,10,50,43,7,1,6.78366550903593,0,0,130,0,2642,2032,-7
2,21,1.5,28,85,-57,0,1.2062249209921,0,0,120,0,427,193,-35
2,22,1.5,48,80,-32,1,1.422563680454,0,0,244,0,579,272,30
2,23,1.5,50,43,7,1,1.30217245583844,0,0,113,0,393,243,-7
2,24,1.5,48,60,-12,1,1.450525373044,0,0,286,0,717,292,10
2,25,1.5,53,40,13,1,1.23280163014715,0,0,203,0,650,157,-10
2,26,1.5,98,38,60,1,1.29573536195039,0,0,206,13,515,259,-12
2,27,1.5,100,0,100,0,1.07678813652001,0,0,271,0,526,138,50
2,28,1.5,100,15,85,0,1.09051692065987,0,0,130,0,309,206,35
2,29,1.5,28,85,-57,NaN,NaN,0,0,120,0,554,224,0
2,30,1.5,48,100,-52,1,0.964075902449622,0,0,137,0,333,123,50
2,31,1.5,0,68,-68,0,0.72580471677702,0,0,270,0,178,164,-18
2,32,1.5,50,100,-50,1,0.945004004361181,0,0,286,0,524,0,50
2,33,1.5,48,100,-52,1,0.859419695607357,0,0,232,0,344,0,50
2,34,1.5,48,80,-32,1,0.785207465310123,0,0,238,0,197,216,30
2,35,1.5,75,0,75,0,0.834201405253225,0,0,254,0,315,155,50
2,36,1.5,50,100,-50,1,0.784744697306451,0,0,98,0,232,175,50
2,37,1.5,80,45,35,1,0.777182530778191,0,0,271,0,79,200,-5
2,38,1.5,85,15,70,0,0.978228211384703,0,0,267,0,239,180,35
2,39,1.5,53,23,30,0,1.05142525003066,0,0,130,0,227,235,27
2,40,1.5,80,45,35,1,1.00846751949666,0,0,236,0,392,183,-5
2,41,10,91,43,48,0,8.6747831103703,0,0,94,0,4435,1032,7
2,42,10,98,9,89,0,8.41278940437769,0,0,123,0,2170,2330,41
2,43,10,48,64,-16,1,5.24157761934021,0,0,111,0,2570,899,14
2,44,10,63,18,45,0,7.42261560223869,0,0,40,0,3612,1822,32
2,45,10,96,11,85,0,5.87434902009682,0,0,124,0,1717,2072,39
2,46,10,28,67,-39,0,5.22183466236402,0,0,127,0,1777,1856,-17
2,47,10,99,47,52,1,3.00361886999144,0,0,47,0,967,920,-3
2,48,10,10,88,-78,0,4.85008705657765,0,0,115,0,1595,1709,-38
2,49,10,41,99,-58,1,3.91859996533003,0,0,115,0,1455,977,49
2,50,10,21,55,-34,0,6.50403711204581,0,0,113,0,2790,801,-5
2,51,10,91,20,71,0,3.95876720177785,0,0,127,0,1525,1165,30
2,52,10,95,32,63,1,8.62284864653157,0,0,66,0,2262,3590,-18
2,53,10,80,50,30,1,3.85892734426034,0,0,184,0,1600,923,0
2,54,10,91,25,66,0,5.2150857358929,0,0,223,0,1980,1223,25
2,55,10,30,96,-66,0,5.508835349121,0,0,119,0,1965,1533,-46
2,56,10,72,42,30,1,4.43047933774051,0,0,113,0,1874,1154,-8
2,57,10,70,12,58,0,4.39582214981783,0,0,109,0,1136,2427,38
2,58,10,19,74,-55,0,7.48246330839811,0,0,81,0,3348,2863,-24
2,59,10,44,98,-54,1,6.88486016290426,0,0,0,0,3111,2113,48
2,60,10,72,0,72,0,3.69479382678583,0,0,81,0,1486,894,50
2,61,1.5,39,76,-37,0,0.791428117804571,0,0,132,0,108,168,-26
2,62,1.5,99,22,77,1,0.734540557146829,0,0,218,8,206,192,-28
2,63,1.5,18,93,-75,0,1.06368392315744,0,0,274,0,481,180,-43
2,64,1.5,43,97,-54,1,1.16404179104484,0,0,219,18,79,149,47
2,65,1.5,7,88,-81,0,0.883710336856893,0,0,279,0,351,143,-38
2,66,1.5,46,96,-50,1,0.830819546182283,0,0,237,0,67,223,46
2,67,1.5,19,81,-62,0,0.788558231685784,0,0,237,0,123,169,-31
2,68,1.5,9,98,-89,0,0.659711604714175,0,0,270,0,115,157,-48
2,69,1.5,40,95,-55,NaN,NaN,0,0,167,0,465,402,0
2,70,1.5,39,86,-47,0,0.755377494063396,0,0,127,0,168,89,-36
2,71,1.5,19,76,-57,0,0.576563393676224,0,0,271,0,38,150,-26
2,72,1.5,4,57,-53,0,0.646985031778058,0,0,273,0,112,154,-7
2,73,1.5,14,61,-47,0,0.659522029824075,0,0,122,126,163,156,-11
2,74,1.5,57,43,14,1,0.791314916237752,0,0,222,0,227,221,-7
2,75,1.5,73,48,25,1,0.805839431924142,0,0,215,11,191,275,-2
2,76,1.5,47,93,-46,1,0.676266805571686,0,0,108,0,63,220,43
2,77,1.5,7,54,-47,0,0.688136669050436,0,0,277,0,164,133,-4
2,78,1.5,45,54,-9,0,0.946575242107428,0,0,281,0,193,172,-4
2,79,1.5,44,75,-31,1,0.587604923557592,0,0,286,0,5,183,25
2,80,1.5,40,99,-59,1,0.786153830407784,0,0,277,0,232,167,49
2,81,10,82,44,38,1,4.42897300222558,0,0,127,0,1982,948,-6
2,82,10,62,16,46,0,2.81700231388459,0,0,73,0,819,1164,34
2,83,10,45,98,-53,1,2.70943486461783,0,0,54,0,930,720,48
2,84,10,69,37,32,1,6.22262345088075,0,0,119,0,2638,1951,-13
2,85,10,72,12,60,0,3.47343284208273,0,0,266,0,267,1554,38
2,86,10,94,12,82,0,3.78766258088945,0,0,0,0,443,1843,38
2,87,10,1,63,-62,0,2.21655856374309,0,0,113,0,1409,139,-13
2,88,10,95,15,80,0,3.26117567830988,0,0,108,0,950,849,35
2,89,10,71,40,31,1,3.08086278918017,0,0,128,0,1302,485,-10
2,90,10,70,10,60,0,2.79532194982767,0,0,269,0,715,611,40
2,91,10,56,27,29,0,3.59844872803569,0,0,108,0,1317,1120,23
2,92,10,96,6,90,0,5.7073492389527,0,0,117,0,885,3116,44
2,93,10,93,19,74,0,5.05156924242328,0,0,107,0,817,2812,31
2,94,10,7,76,-69,0,3.29338227871722,0,0,41,128,1254,746,-26
2,95,10,46,82,-36,1,3.46299565763184,0,0,116,0,900,1374,32
2,96,10,48,67,-19,1,4.37002124873288,0,0,116,0,1861,1006,17
2,97,10,58,3,55,0,3.27930573936374,0,0,107,0,1026,1213,47
2,98,10,24,54,-30,1,3.60966624861976,0,0,105,0,1789,674,4
2,99,10,9,58,-49,0,3.07791200167503,0,0,91,0,1245,670,-8
2,100,10,6,75,-69,0,3.18427317504666,0,0,275,0,951,712,-25
2,101,1.5,38,61,-23,1,0.762998223533941,0,0,268,0,101,102,11
2,102,1.5,63,21,42,1,0.706824587425217,0,0,276,0,398,0,-29
2,103,1.5,80,44,36,1,0.843333602042549,0,0,209,0,244,223,-6
2,104,1.5,90,15,75,0,0.935071849833548,0,0,278,0,309,172,35
2,105,1.5,84,20,64,0,0.958813388017006,0,0,230,5,157,213,30
2,106,1.5,96,22,74,0,0.701213412165998,0,0,210,25,170,194,28
2,107,1.5,84,17,67,0,0.878350620011588,0,0,263,0,339,172,33
2,108,1.5,16,98,-82,0,0.91270140902725,0,0,218,14,97,350,-48
2,109,1.5,16,80,-64,0,0.624437996527377,0,0,247,0,38,231,-30
2,110,1.5,60,28,32,0,0.876324161032244,0,0,220,15,224,188,22
2,111,1.5,54,49,5,1,0.75546322538321,0,0,241,0,47,221,-1
2,112,1.5,82,20,62,0,0.785823885575155,0,0,254,0,56,167,30
2,113,1.5,48,71,-23,1,1.00624001453434,0,0,259,0,166,308,21
2,114,1.5,5,96,-91,0,0.641971560792626,0,0,139,0,65,175,-46
2,115,1.5,31,52,-21,0,0.676494416188689,0,0,273,0,117,174,-2
2,116,1.5,20,66,-46,0,0.621592561947182,0,0,244,0,47,233,-16
2,117,1.5,70,1,69,0,0.736755987274591,0,0,207,32,156,81,49
2,118,1.5,49,80,-31,1,0.983252851592624,0,0,219,21,171,178,30
2,119,1.5,47,79,-32,1,0.907601301108116,0,0,221,15,96,354,29
2,120,1.5,49,89,-40,1,1.09129967175977,0,0,273,0,207,218,39
2,121,10,7,66,-59,0,5.44015369456611,0,0,94,0,1706,1801,-16
2,122,10,70,1,69,0,7.23323058861752,0,0,95,0,1510,3343,49
2,123,10,94,20,74,0,5.31424064846306,0,0,119,0,2133,1413,30
2,124,10,88,19,69,0,6.67260239538973,0,0,0,12,754,4417,31
2,125,10,36,56,-20,0,8.91987386029359,0,0,80,0,3018,3430,-6
2,126,10,36,89,-53,0,4.93912446592185,0,0,114,0,1996,1411,-39
2,127,10,84,20,64,0,5.51154524369122,0,0,268,0,1512,2481,30
2,128,10,83,19,64,0,6.70910552352689,0,0,135,0,885,4064,31
2,129,10,62,16,46,0,7.81911359857077,0,0,79,0,2223,2815,34
2,130,10,21,57,-36,0,5.89874139182029,0,0,99,0,1982,2018,-7
2,131,10,49,55,-6,1,4.28617692352782,0,0,57,0,1321,1585,5
2,132,10,49,93,-44,1,3.61223969756975,0,0,121,0,1559,853,43
2,133,10,89,38,51,1,3.03773963342246,0,0,76,0,690,1077,-12
2,134,10,20,70,-50,0,5.30212657147149,0,0,124,0,1671,1721,-20
2,135,10,52,2,50,0,4.4197906948757,0,0,125,0,1217,1074,48
2,136,10,94,12,82,0,3.98906446909132,0,0,257,0,835,1599,38
2,137,10,66,23,43,0,5.44786770212795,0,0,116,0,2029,2297,27
2,138,10,90,15,75,0,5.9841364275544,0,0,117,0,876,3784,35
2,139,10,64,44,20,1,2.71436260428436,0,0,86,0,1420,381,-6
2,140,10,80,29,51,0,4.31282638355606,0,0,104,0,742,1733,21
2,141,1.5,95,21,74,1,0.81013294094555,0,0,264,0,177,154,-29
2,142,1.5,35,73,-38,0,0.908493631323836,0,0,286,0,297,230,-23
2,143,1.5,77,46,31,1,0.987581981373296,0,0,131,0,369,232,-4
2,144,1.5,48,82,-34,1,0.839270420475259,0,0,243,0,231,241,32
2,145,1.5,54,1,53,0,0.648335300066719,0,0,198,39,143,172,49
2,146,1.5,40,68,-28,1,0.761529621875525,0,0,245,0,171,227,18
2,147,1.5,98,7,91,0,0.654635948333635,0,0,191,44,176,141,43
2,148,1.5,3,51,-48,0,0.608436728670313,0,0,234,0,51,202,-1
2,149,1.5,69,31,38,1,0.843550345309268,0,0,272,0,128,219,-19
2,150,1.5,20,67,-47,0,0.724664550596572,0,0,188,0,88,198,-17
2,151,1.5,91,13,78,0,0.823757881515121,0,0,112,0,115,184,37
2,152,1.5,47,74,-27,1,0.970202069368497,0,0,131,0,252,155,24
2,153,1.5,14,89,-75,0,0.661859717643893,0,0,65,0,79,190,-39
2,154,1.5,51,32,19,1,1.32569815636816,0,0,244,0,449,321,-18
2,155,1.5,47,65,-18,1,1.25125590048719,0,0,274,0,458,217,15
2,156,1.5,13,97,-84,0,0.659563084259389,0,0,286,0,11,160,-47
2,157,1.5,27,64,-37,0,0.683984435583625,0,0,119,0,32,236,-14
2,158,1.5,41,99,-58,1,0.795137506742321,0,0,238,0,32,225,49
2,159,1.5,76,11,65,0,1.00624937253087,0,0,94,0,307,158,39
2,160,1.5,42,72,-30,1,0.792611149643562,0,0,179,53,135,169,22
3,1,10,28,85,-57,0,5.56021104999309,0,0,0,109,2585,1773,-35
3,2,10,100,15,85,1,2.72860305947324,0,0,0,122,1637,735,-35
3,3,10,98,38,60,1,2.45113183153626,0,0,0,124,1149,846,-12
3,4,10,53,23,30,0,3.86370626156713,0,0,0,259,2301,1012,27
3,5,10,50,43,7,0,4.69325005925384,0,0,0,279,1647,2408,7
3,6,10,25,55,-30,0,3.2891630298891,0,0,0,272,1237,1344,-5
3,7,10,100,0,100,1,2.34952059590432,0,0,8,170,766,948,-50
3,8,10,50,43,7,0,1.95152109399169,0,0,0,271,901,622,7
3,9,10,53,23,30,0,4.55742629145243,0,0,0,261,2196,1553,27
3,10,10,30,100,-70,0,1.95812270749047,0,0,0,268,623,929,-50
3,11,10,3,100,-97,0,1.2609353890839,0,0,0,271,139,566,-50
3,12,10,48,80,-32,1,8.07443535512539,0,0,0,286,1951,4496,30
3,13,10,50,100,-50,1,5.10134412220759,0,0,0,276,2178,1722,50
3,14,10,100,0,100,1,2.36648030369361,0,0,0,275,717,1057,-50
3,15,10,0,68,-68,0,3.82240067016573,0,0,0,267,750,2280,-18
3,16,10,48,60,-12,1,9.6445682537651,0,0,0,270,3060,4420,10
3,17,10,100,15,85,1,1.40101372456957,0,0,0,286,649,217,-35
3,18,10,53,40,13,0,4.56576547353325,0,0,0,180,2391,1157,10
3,19,10,53,0,53,0,2.08643351371211,0,0,0,286,962,475,50
3,20,10,28,85,-57,0,6.60247930751939,0,0,0,274,1274,2302,-35
3,21,1.5,48,60,-12,0,1.28699378599958,0,0,0,121,563,305,-10
3,22,1.5,48,100,-52,NaN,NaN,0,0,0,131,501,576,0
3,23,1.5,25,55,-30,1,0.593190439762111,0,0,0,125,0,288,5
3,24,1.5,98,38,60,1,0.794440486928579,0,0,106,137,489,0,-12
3,25,1.5,48,80,-32,0,0.843576306167961,0,0,0,254,465,0,-30
3,26,1.5,0,68,-68,0,1.06668240622457,0,0,0,270,351,318,-18
3,27,1.5,85,15,70,1,1.00772612466972,0,0,0,273,477,167,-35
3,28,1.5,3,100,-97,0,1.0467906269223,0,0,0,275,433,211,-50
3,29,1.5,80,45,35,1,1.34852713895634,0,0,0,286,478,367,-5
3,30,1.5,48,100,-52,NaN,NaN,0,0,0,261,671,394,0
3,31,1.5,5,83,-78,0,1.01793660411386,0,0,0,268,344,273,-33
3,32,1.5,53,40,13,1,1.02438607471049,0,0,0,270,385,211,-10
3,33,1.5,80,45,35,1,1.10345208631588,0,0,0,266,414,262,-5
3,34,1.5,5,83,-78,0,0.906481963982515,0,0,0,276,333,241,-33
3,35,1.5,30,100,-70,0,1.42156961972978,0,0,0,269,394,618,-50
3,36,1.5,75,0,75,1,0.892557567534823,0,0,0,269,477,69,-50
3,37,1.5,75,0,75,1,0.737005936300193,0,0,0,272,332,59,-50
3,38,1.5,85,15,70,0,0.891456040822959,0,0,0,271,458,82,35
3,39,1.5,50,100,-50,0,1.4478746451241,0,0,0,286,530,486,-50
3,40,1.5,53,0,53,1,1.46217094645363,0,0,0,276,336,527,-50
3,41,10,76,42,34,1,4.84438169758323,0,0,0,102,2317,1374,-8
3,42,10,50,43,7,0,2.70493819648436,0,0,0,270,1166,864,7
3,43,10,87,2,85,1,4.78812414137792,0,0,0,273,3814,53,-48
3,44,10,53,0,53,0,6.88261726249584,0,0,0,275,2972,2352,50
3,45,10,54,50,4,1,3.19660218404715,0,0,0,278,661,1680,0
3,46,10,13,68,-55,0,2.02027368819472,0,0,0,279,636,783,-18
3,47,10,1,68,-67,0,1.49420427299265,0,0,0,125,448,497,-18
3,48,10,44,73,-29,1,4.93493147985828,0,0,0,89,2271,1642,23
3,49,10,48,80,-32,1,2.51148215265312,0,0,0,265,1467,391,30
3,50,10,92,21,71,1,3.0100303048257,0,0,0,268,1188,1023,-29
3,51,10,36,89,-53,NaN,NaN,0,0,0,266,4546,3611,0
3,52,10,62,18,44,1,1.46836805301973,0,0,0,153,477,370,-32
3,53,10,31,99,-68,0,2.39706253708391,0,0,0,274,887,742,-49
3,54,10,53,0,53,0,1.88447437193099,0,0,0,268,825,448,50
3,55,10,3,98,-95,0,3.03989831179933,0,0,0,278,1301,686,-48
3,56,10,23,61,-38,0,2.10099153706324,0,0,66,172,1594,0,-11
3,57,10,25,55,-30,0,2.6230527111893,0,0,0,200,814,1055,-5
3,58,10,93,16,77,1,1.45162629598235,0,0,0,264,592,400,-34
3,59,10,44,73,-29,1,4.81232512698625,0,0,0,60,2228,1745,23
3,60,10,15,78,-63,0,1.36957297049594,0,0,0,270,548,403,-28
3,61,1.5,10,68,-58,0,0.840446509251706,0,0,0,269,463,10,-18
3,62,1.5,71,18,53,1,1.08623729766441,0,0,0,263,501,148,-32
3,63,1.5,98,50,48,1,1.26590961686088,0,0,0,73,882,2,0
3,64,1.5,50,100,-50,0,0.997456478538879,0,0,0,266,615,13,-50
3,65,1.5,3,54,-51,0,1.29330590535938,0,0,0,267,580,357,-4
3,66,1.5,37,58,-21,0,1.23289581381869,0,0,0,267,593,283,-8
3,67,1.5,35,75,-40,0,1.06992691406049,0,0,0,263,500,149,-25
3,68,1.5,48,80,-32,1,1.08160810826303,0,0,0,264,512,180,30
3,69,1.5,66,45,21,1,1.06998517513603,0,0,0,266,487,183,-5
3,70,1.5,49,53,-4,1,1.40165067205089,0,0,0,275,664,293,3
3,71,1.5,25,55,-30,0,1.06993868702557,0,0,0,271,520,197,-5
3,72,1.5,94,3,91,1,0.849549122698591,0,0,18,224,527,0,-47
3,73,1.5,72,8,64,1,0.98138879909493,0,0,0,268,533,103,-42
3,74,1.5,53,23,30,0,1.19578079347957,0,0,0,103,590,205,27
3,75,1.5,90,3,87,1,0.826127567612275,0,0,0,137,403,59,-47
3,76,1.5,49,53,-4,NaN,NaN,0,0,0,266,670,379,0
3,77,1.5,96,4,92,1,0.674499653616294,0,0,34,203,371,0,-46
3,78,1.5,76,1,75,0,0.766321217759469,0,0,0,265,375,39,49
3,79,1.5,39,59,-20,0,1.25408473213975,0,0,0,266,531,365,-9
3,80,1.5,73,3,70,1,0.666422193555263,0,0,98,0,365,0,-47
3,81,10,34,75,-41,0,5.71228784593586,0,0,0,217,3368,1085,-25
3,82,10,53,23,30,0,2.369225819024,0,0,0,133,1266,402,27
3,83,10,98,26,72,1,3.30454365128935,0,0,0,265,1259,1352,-24
3,84,10,43,90,-47,1,4.51354543987509,0,0,0,269,1440,1969,40
3,85,10,16,70,-54,0,3.52152358442618,0,0,0,163,1829,854,-20
3,86,10,53,40,13,0,3.19376550372181,0,0,126,0,1453,946,10
3,87,10,48,80,-32,1,5.15143294770496,0,0,0,130,2209,1473,30
3,88,10,4,80,-76,0,1.28590825844367,0,0,0,286,532,134,-30
3,89,10,94,42,52,1,3.13618514947666,0,0,0,121,1653,738,-8
3,90,10,23,67,-44,0,1.17594878460477,0,0,0,286,615,91,-17
3,91,10,53,23,30,0,2.85803018407751,0,0,0,125,1597,565,27
3,92,10,89,32,57,1,1.35721950992411,0,0,0,130,788,194,-18
3,93,10,50,43,7,0,3.72069917514818,0,0,0,170,1377,1616,7
3,94,10,6,65,-59,0,2.15220875577506,0,0,72,163,802,579,-15
3,95,10,91,1,90,1,1.61139294981876,0,0,0,121,1184,52,-49
3,96,10,48,60,-12,1,4.4082036843447,0,0,0,113,1723,1911,10
3,97,10,9,50,-41,0,1.90823070178521,0,0,0,271,856,271,0
3,98,10,67,27,40,1,2.65298894097396,0,0,0,153,1220,912,-23
3,99,10,24,87,-63,0,1.27157512887425,0,0,0,260,509,239,-37
3,100,10,51,38,13,0,2.32568004408495,0,0,0,109,1106,550,12
3,101,1.5,86,31,55,1,0.798119386912731,0,0,60,149,358,84,-19
3,102,1.5,5,88,-83,0,1.05115899991324,0,0,0,268,356,320,-38
3,103,1.5,43,50,-7,0,1.33426253406651,0,0,0,262,562,357,0
3,104,1.5,69,42,27,1,0.877205925737144,0,0,0,265,330,163,-8
3,105,1.5,51,38,13,0,1.28768325901001,0,0,0,263,576,299,12
3,106,1.5,53,0,53,0,0.720629141114841,0,0,50,173,388,0,50
3,107,1.5,71,9,62,1,0.824384263485626,0,0,0,273,389,86,-41
3,108,1.5,48,80,-32,0,1.06017799513575,0,0,8,231,726,0,-30
3,109,1.5,16,67,-51,0,1.27850276288518,0,0,0,263,538,360,-17
3,110,1.5,10,78,-68,0,0.959464221523376,0,0,19,218,390,215,-28
3,111,1.5,74,39,35,1,1.20384165064206,0,0,178,0,328,473,-11
3,112,1.5,51,38,13,0,1.11949471047956,0,0,134,0,169,597,12
3,113,1.5,72,27,45,1,0.910437679531242,0,0,0,236,580,0,-23
3,114,1.5,25,55,-30,0,1.11021791755593,0,0,32,195,682,75,-5
3,115,1.5,82,30,52,1,0.829916650453015,0,0,262,0,79,411,-20
3,116,1.5,51,27,24,0,1.23300509106411,0,0,0,248,416,421,23
3,117,1.5,25,74,-49,0,1.25127703141334,0,0,0,271,737,115,-24
3,118,1.5,20,98,-78,0,1.14888062971477,0,0,0,265,579,195,-48
3,119,1.5,53,40,13,0,1.30592682350107,0,0,0,263,457,384,10
3,120,1.5,58,35,23,NaN,NaN,0,0,0,261,646,424,0
3,121,10,38,82,-44,0,3.56107741931737,0,0,0,153,1130,1496,-32
3,122,10,26,78,-52,0,1.22194303396464,0,0,0,122,632,218,-28
3,123,10,91,4,87,1,2.05345684078202,0,0,0,98,637,1001,-46
3,124,10,8,66,-58,0,3.82277378252911,0,0,0,265,1698,1115,-16
3,125,10,63,49,14,1,3.96822300407985,0,0,0,180,1576,1609,-1
3,126,10,53,28,25,0,1.84437596203679,0,0,0,270,740,641,22
3,127,10,43,90,-47,1,5.71112051138152,0,0,0,154,2412,2281,40
3,128,10,53,0,53,0,2.05338107120042,0,0,0,82,940,420,50
3,129,10,53,23,30,0,2.83942648766788,0,0,0,279,2020,39,27
3,130,10,82,38,44,1,1.49793962282274,0,0,0,127,568,513,-12
3,131,10,25,55,-30,0,2.63077275616706,0,0,0,267,1175,753,-5
3,132,10,50,43,7,0,1.57730659966364,0,0,265,0,441,509,7
3,133,10,39,53,-14,0,3.06942520471785,0,0,0,267,1278,793,-3
3,134,10,29,99,-70,0,1.20452508623384,0,0,0,261,578,280,-49
3,135,10,16,70,-54,0,1.26810542538624,0,0,0,108,386,236,-20
3,136,10,76,1,75,1,3.65677983503883,0,0,0,117,2577,482,-49
3,137,10,24,100,-76,0,1.28905646948078,0,0,0,106,323,423,-50
3,138,10,87,17,70,1,2.36512611108628,0,0,0,78,1147,623,-33
3,139,10,14,89,-75,0,2.80975016868251,0,0,106,0,576,1360,-39
3,140,10,28,77,-49,0,3.32419695262615,0,0,118,0,1368,937,-27
3,141,1.5,62,46,16,1,0.836001159195803,0,0,104,0,283,219,-4
3,142,1.5,17,58,-41,0,0.877161550721212,0,0,0,264,460,69,-8
3,143,1.5,90,30,60,1,0.820927540442426,0,0,82,156,477,0,-20
3,144,1.5,43,90,-47,0,0.855262934044731,0,0,0,218,238,252,-40
3,145,1.5,95,8,87,1,0.864405998185248,0,0,0,265,347,166,-42
3,146,1.5,51,38,13,0,1.30478786480307,0,0,0,144,520,227,12
3,147,1.5,49,75,-26,0,1.17565355491934,0,0,0,135,528,256,-25
3,148,1.5,27,98,-71,0,0.924019150697859,0,0,0,268,539,36,-48
3,149,1.5,47,98,-51,NaN,NaN,0,0,0,252,570,492,0
3,150,1.5,76,1,75,0,0.81828224623132,0,0,0,146,343,121,49
3,151,1.5,84,28,56,1,0.993971681507901,0,0,0,266,549,63,-22
3,152,1.5,46,81,-35,0,1.18102534659738,0,0,260,0,201,632,-31
3,153,1.5,57,40,17,1,1.24064574401018,0,0,0,119,558,289,-10
3,154,1.5,51,27,24,0,1.15357834379756,0,0,0,120,390,382,23
3,155,1.5,43,90,-47,NaN,NaN,0,0,0,286,669,397,0
3,156,1.5,20,91,-71,0,1.1097771861223,0,0,0,268,478,242,-41
3,157,1.5,51,38,13,1,0.692743821848126,0,0,52,0,399,0,-12
3,158,1.5,35,80,-45,0,1.43590606987891,0,0,115,0,276,814,-30
3,159,1.5,85,7,78,1,1.0287967096192,0,0,145,0,250,445,-43
3,160,1.5,88,27,61,1,0.750479035836179,0,0,268,0,86,323,-23
4,1,10,48,80,-32,1,1.56046221996166,0,0,118,0,565,601,30
4,2,10,48,80,-32,1,0.857973650332497,0,0,128,0,68,461,30
4,3,10,100,15,85,1,1.11700972580775,0,0,113,0,326,446,-35
4,4,10,25,55,-30,0,7.03715048252707,0,0,91,0,1640,2916,-5
4,5,10,85,15,70,1,3.06638222517813,0,0,0,109,1622,856,-35
4,6,10,53,0,53,0,1.98346864439463,0,0,76,0,708,622,50
4,7,10,48,100,-52,1,2.08820543343427,0,0,0,118,1067,549,50
4,8,10,98,38,60,1,5.28493821603251,0,0,89,0,1040,1603,-12
4,9,10,5,83,-78,0,3.23265464745054,0,0,0,102,1082,1352,-33
4,10,10,85,15,70,1,2.6710480743759,0,0,0,98,1277,831,-35
4,11,10,100,15,85,1,4.10029448799014,0,0,0,106,1126,1769,-35
4,12,10,53,23,30,0,3.39973548204125,0,0,0,120,504,914,27
4,13,10,5,83,-78,0,3.76738317124364,0,0,0,108,1158,1581,-33
4,14,10,75,0,75,0,3.97624093112654,0,0,0,46,2157,1233,50
4,15,10,28,85,-57,1,4.48907832553959,0,0,45,0,2184,937,35
4,16,10,30,100,-70,0,5.75705251913496,0,0,60,0,2278,2141,-50
4,17,10,48,100,-52,1,3.42995615626569,0,0,0,105,1547,1035,50
4,18,10,48,60,-12,1,8.10091785297755,0,0,0,123,3452,2941,10
4,19,10,98,38,60,1,3.35912529073312,0,0,0,88,1272,1170,-12
4,20,10,53,0,53,0,2.5368516295789,0,0,124,0,1168,853,50
4,21,1.5,50,100,-50,1,1.02943705775078,0,0,126,0,0,709,50
4,22,1.5,30,100,-70,1,0.54924980072019,0,0,0,108,161,59,50
4,23,1.5,53,23,30,0,0.879782670619988,0,0,260,0,17,534,27
4,24,1.5,80,45,35,1,0.733565696134519,0,0,261,0,7,387,-5
4,25,1.5,53,40,13,0,0.848709510814388,0,0,242,0,216,257,10
4,26,1.5,80,45,35,1,0.711188855245837,0,0,179,52,0,425,-5
4,27,1.5,3,100,-97,1,0.835662315594618,0,0,89,0,0,545,50
4,28,1.5,0,68,-68,0,0.745447968600729,0,0,126,0,20,394,-18
4,29,1.5,3,100,-97,1,0.787909236956239,0,0,267,0,27,388,50
4,30,1.5,50,100,-50,1,0.860455639159682,0,0,0,113,477,22,50
4,31,1.5,0,68,-68,0,0.706200727858231,0,0,0,120,28,347,-18
4,32,1.5,100,0,100,1,0.829979883378655,0,0,261,0,45,447,-50
4,33,1.5,50,43,7,0,0.893145019857457,0,0,112,0,208,322,7
4,34,1.5,28,85,-57,0,1.44957268265216,0,0,214,0,536,514,-35
4,35,1.5,25,55,-30,NaN,NaN,0,0,0,84,360,730,0
4,36,1.5,100,0,100,1,0.619687629345208,0,0,113,0,141,148,-50
4,37,1.5,53,40,13,0,0.691580781265657,0,0,229,0,0,358,10
4,38,1.5,75,0,75,0,0.743774995834883,0,0,126,0,12,392,50
4,39,1.5,48,60,-12,0,1.01056494688919,0,0,182,55,0,724,-10
4,40,1.5,50,43,7,0,0.986273032159716,0,0,263,0,12,643,7
4,41,10,85,35,50,1,1.49662572090028,0,0,82,0,545,487,-15
4,42,10,0,96,-96,0,3.32868002399027,0,0,99,0,332,2017,-46
4,43,10,48,85,-37,1,2.64304645875882,0,0,0,104,844,1236,35
4,44,10,44,90,-46,1,1.5769724869192,0,0,102,0,629,508,40
4,45,10,45,99,-54,1,1.75316380835011,0,0,0,105,760,546,49
4,46,10,26,96,-70,1,3.07468188472694,0,0,0,137,1963,404,46
4,47,10,75,30,45,1,3.73505422531343,0,0,0,107,1809,1113,-20
4,48,10,40,94,-54,1,3.77527590778891,0,0,0,132,1643,1338,44
4,49,10,46,99,-53,1,1.83080338927948,0,0,0,93,1018,358,49
4,50,10,99,10,89,1,4.42161031035175,0,0,88,0,2881,927,-40
4,51,10,86,5,81,0,1.36026847872745,0,0,92,0,692,234,45
4,52,10,60,44,16,1,3.56856234234056,0,0,0,0,1455,1210,-6
4,53,10,47,83,-36,1,5.14343496759193,0,0,0,116,2354,1346,33
4,54,10,91,18,73,0,5.48719796694013,0,0,0,105,2606,1584,32
4,55,10,100,1,99,1,1.68088335508355,0,0,112,0,739,501,-49
4,56,10,61,43,18,1,2.96093060403655,0,0,0,286,0,85,-7
4,57,10,78,16,62,0,3.54474406425288,0,0,0,113,2220,759,34
4,58,10,9,74,-65,0,4.00898434685269,0,0,0,114,1619,1468,-24
4,59,10,54,22,32,0,1.54975302078492,0,0,127,0,487,618,28
4,60,10,44,95,-51,1,7.60242872065965,0,0,138,0,2607,2138,45
4,61,1.5,34,57,-23,0,0.914833291479681,0,0,262,0,26,557,-7
4,62,1.5,48,55,-7,1,1.30054588671192,0,0,230,0,295,589,5
4,63,1.5,50,46,4,1,1.00683320937014,0,0,141,0,75,586,-4
4,64,1.5,5,59,-54,NaN,NaN,0,0,0,102,632,410,0
4,65,1.5,29,97,-68,1,0.985091204592209,0,0,130,0,62,592,47
4,66,1.5,46,86,-40,1,0.767494863760021,0,0,259,0,16,422,36
4,67,1.5,62,36,26,1,0.631312707152119,0,0,212,7,0,345,-14
4,68,1.5,100,16,84,1,0.787815052996848,0,0,258,0,69,389,-34
4,69,1.5,48,91,-43,1,0.826215845591378,0,0,0,107,347,128,41
4,70,1.5,59,8,51,0,0.687350351756322,0,0,137,0,101,258,42
4,71,1.5,28,98,-70,1,0.808473942242472,0,0,172,62,0,501,48
4,72,1.5,29,100,-71,1,0.734260604706833,0,0,233,0,0,395,50
4,73,1.5,99,18,81,1,0.654072019440264,0,0,266,0,16,308,-32
4,74,1.5,11,82,-71,0,0.745851571015919,0,0,131,0,33,383,-32
4,75,1.5,69,46,23,1,0.85832653830812,0,0,260,0,107,366,-4
4,76,1.5,79,14,65,0,1.07813861715977,0,0,76,0,148,601,36
4,77,1.5,38,97,-59,1,0.729155954856651,0,0,262,0,123,233,47
4,78,1.5,80,32,48,1,0.802323307073948,0,0,263,0,20,396,-18
4,79,1.5,38,81,-43,0,0.792072047212969,0,0,136,0,71,388,-31
4,80,1.5,55,21,34,0,0.886500824517498,0,0,0,96,200,289,29
4,81,10,30,72,-42,1,6.09161386640017,0,0,0,120,1685,2537,22
4,82,10,30,99,-69,1,6.28499949598063,0,0,104,0,3280,1312,49
4,83,10,92,18,74,0,4.84573637678886,0,0,145,105,2260,1369,32
4,84,10,51,49,2,NaN,NaN,0,0,0,110,3201,4514,0
4,85,10,36,99,-63,1,2.16616711142979,0,0,0,118,1067,540,49
4,86,10,15,93,-78,1,1.31618404643041,0,0,0,104,375,520,43
4,87,10,77,44,33,1,1.00899189364418,0,0,0,83,315,299,-6
4,88,10,24,60,-36,0,4.05851665708315,0,0,0,94,1868,1426,-10
4,89,10,31,98,-67,1,4.62864536912321,0,0,259,0,752,2982,48
4,90,10,90,19,71,0,4.62384349655304,0,0,0,119,2087,1314,31
4,91,10,48,55,-7,0,4.13775464847686,0,0,0,97,1994,1455,-5
4,92,10,3,63,-60,0,3.27992231645203,0,0,0,0,1074,1505,-13
4,93,10,58,28,30,0,3.46552026082691,0,0,0,73,1494,1118,22
4,94,10,74,13,61,0,3.86780651606659,0,0,0,146,2025,967,37
4,95,10,70,13,57,0,2.03733130365435,0,0,100,0,1012,589,37
4,96,10,32,99,-67,1,4.94918568317826,0,0,0,93,2284,561,49
4,97,10,45,82,-37,1,4.07432869487957,0,0,0,106,1649,1311,32
4,98,10,98,19,79,1,3.9157515850834,0,0,0,105,2401,913,-31
4,99,10,20,60,-40,0,3.25920486410405,0,0,117,0,725,1348,-10
4,100,10,48,64,-16,1,3.86829252944653,0,0,256,0,1838,1118,14
4,101,1.5,6,83,-77,0,0.706366757273827,0,0,127,0,49,324,-33
4,102,1.5,88,39,49,1,0.914808236131194,0,0,0,101,296,232,-11
4,103,1.5,33,95,-62,1,1.02640385126415,0,0,261,0,61,567,45
4,104,1.5,4,56,-52,0,0.805536127201322,0,0,120,0,46,428,-6
4,105,1.5,65,41,24,0,1.09664697266544,0,0,262,0,312,391,9
4,106,1.5,23,98,-75,1,0.881015212627062,0,0,238,0,0,594,48
4,107,1.5,46,89,-43,1,1.18670555388053,0,0,262,0,461,328,39
4,108,1.5,49,83,-34,1,0.81300533780086,0,0,199,42,49,431,33
4,109,1.5,96,46,50,1,1.09745870557208,0,0,0,0,242,465,-4
4,110,1.5,32,100,-68,1,1.13715603696573,0,0,136,0,370,352,50
4,111,1.5,50,43,7,0,0.996740734004561,0,0,0,106,213,399,7
4,112,1.5,37,95,-58,1,1.13584742329977,0,0,259,0,232,529,45
4,113,1.5,68,17,51,0,1.0695268223094,0,0,232,0,104,614,33
4,114,1.5,36,57,-21,0,0.829211318120088,0,0,232,0,136,344,-7
4,115,1.5,60,32,28,0,0.852154772123413,0,0,242,0,12,510,18
4,116,1.5,45,57,-12,0,1.28525246443542,0,0,261,0,371,471,-7
4,117,1.5,35,93,-58,1,1.27686646959,0,0,124,0,582,273,43
4,118,1.5,15,76,-61,0,1.17178162252139,0,0,0,97,338,445,-26
4,119,1.5,3,81,-78,0,0.936774531555784,0,0,120,0,41,566,-31
4,120,1.5,83,40,43,1,0.885842744288766,0,0,111,0,267,234,-10
4,121,10,49,78,-29,1,4.31853381546807,0,0,117,0,1505,1628,28
4,122,10,26,60,-34,0,2.59646343469331,0,0,125,0,469,1285,-10
4,123,10,69,8,61,0,0.920378975831682,0,0,126,0,317,220,42
4,124,10,26,96,-70,1,2.21993588860187,0,0,0,36,1508,282,46
4,125,10,95,48,47,1,4.37454580098074,0,0,156,0,2780,1000,-2
4,126,10,67,10,57,0,2.90659642123637,0,0,115,0,2146,285,40
4,127,10,28,50,-22,0,4.74562848785581,0,0,97,0,2065,1473,0
4,128,10,59,36,23,0,4.81421493756125,0,0,115,0,1694,2434,14
4,129,10,46,85,-39,1,4.88804519995392,0,0,0,91,1258,1539,35
4,130,10,24,67,-43,0,3.31925347751667,0,0,101,0,1043,1186,-17
4,131,10,80,15,65,0,2.56288655130083,0,0,123,0,864,1113,35
4,132,10,45,84,-39,1,3.91208746681741,0,0,0,90,1890,1207,34
4,133,10,8,53,-45,0,3.48618126317342,0,0,61,0,1739,1217,-3
4,134,10,76,33,43,1,3.56578270805176,0,0,0,92,2108,858,-17
4,135,10,46,54,-8,0,4.20935075867965,0,0,256,0,1681,1795,-4
4,136,10,56,26,30,0,6.45138421451202,0,0,81,0,1698,2791,24
4,137,10,44,89,-45,1,4.32270749310419,0,0,0,99,2413,1226,39
4,138,10,12,77,-65,0,5.06406747325309,0,0,85,0,2116,2064,-27
4,139,10,54,47,7,1,4.48781227577774,0,0,0,99,1708,2148,-3
4,140,10,27,98,-71,1,4.55036642400773,0,0,80,0,1160,2312,48
4,141,1.5,43,91,-48,1,0.826163319921761,0,0,0,103,261,180,41
4,142,1.5,27,62,-35,0,0.820626691719099,0,0,191,46,0,535,-12
4,143,1.5,49,80,-31,1,0.727049494380481,0,0,202,35,0,441,30
4,144,1.5,73,48,25,1,0.637500472535066,0,0,184,56,0,299,-2
4,145,1.5,80,47,33,1,0.687333446943285,0,0,235,0,0,361,-3
4,146,1.5,82,18,64,NaN,NaN,0,0,122,0,343,731,0
4,147,1.5,100,28,72,1,0.607636308746805,0,0,112,0,107,170,-22
4,148,1.5,66,9,57,0,0.626818743679905,0,0,192,48,0,341,41
4,149,1.5,73,30,43,1,0.797291710166974,0,0,261,0,11,411,-20
4,150,1.5,37,89,-52,1,0.77570365993779,0,0,258,0,0,450,39
4,151,1.5,42,55,-13,0,0.85746348721932,0,0,249,0,0,533,-5
4,152,1.5,11,96,-85,1,0.849166544514901,0,0,247,0,0,520,46
4,153,1.5,35,70,-35,1,0.953580029001387,0,0,224,0,290,273,20
4,154,1.5,77,25,52,1,0.76597373244158,0,0,212,0,0,478,-25
4,155,1.5,46,91,-45,1,0.609738241148079,0,0,123,0,85,189,41
4,156,1.5,86,5,81,0,0.676211891072398,0,0,214,27,0,390,45
4,157,1.5,30,57,-27,0,0.723367263814453,0,0,186,54,0,437,-7
4,158,1.5,38,89,-51,1,0.728516288799256,0,0,178,61,0,442,39
4,159,1.5,8,79,-71,0,0.645560747854233,0,0,101,0,49,267,-29
4,160,1.5,14,60,-46,0,0.678699011717981,0,0,229,0,0,381,-10
5,1,10,53,40,13,1,3.32373898957303,0,0,87,0,1051,1214,-10
5,2,10,53,23,30,0,4.60604635167874,0,0,0,71,1623,2061,27
5,3,10,98,38,60,0,4.10132689007332,0,0,54,0,858,2234,12
5,4,10,48,80,-32,0,4.1054637393645,0,0,93,0,880,2511,-30
5,5,10,53,0,53,0,4.2368980584306,0,0,78,0,1774,1961,50
5,6,10,25,55,-30,0,4.78695019166662,0,0,0,260,1249,2572,-5
5,7,10,5,83,-78,0,4.33955404608605,0,0,19,133,1187,2245,-33
5,8,10,80,45,35,1,4.78153823646244,0,0,41,0,1570,2364,-5
5,9,10,53,40,13,1,4.60612212146589,0,0,39,0,1219,2655,-10
5,10,10,53,0,53,0,5.80538790920218,0,0,17,0,1494,2438,50
5,11,10,50,43,7,1,3.30828466969797,0,0,53,0,426,2233,-7
5,12,10,50,100,-50,0,4.80804105926472,0,0,38,0,1569,1670,-50
5,13,10,30,100,-70,0,5.15917999086923,0,0,42,0,1309,3260,-50
5,14,10,80,45,35,1,5.56828401765597,0,0,85,0,1912,2356,-5
5,15,10,0,68,-68,0,4.33664279574987,0,0,48,0,927,2266,-18
5,16,10,85,15,70,0,4.44262842786884,0,0,94,0,616,2909,35
5,17,10,75,0,75,0,4.05660248984532,0,0,116,0,762,1697,50
5,18,10,48,60,-12,1,5.09411215728687,0,0,0,63,1025,2682,10
5,19,10,100,0,100,0,5.5612289749788,0,0,61,0,1162,3074,50
5,20,10,25,55,-30,0,6.27419671757707,0,0,52,0,1539,3461,-5
5,21,1.5,48,100,-52,0,1.08468983701641,0,0,86,0,270,456,-50
5,22,1.5,3,100,-97,0,0.877665947495188,0,0,0,0,92,429,-50
5,23,1.5,30,100,-70,0,1.09149825054192,0,0,0,264,716,40,-50
5,24,1.5,48,60,-12,NaN,NaN,0,0,46,0,434,672,0
5,25,1.5,98,38,60,1,1.1817624063624,0,0,107,0,443,355,-12
5,26,1.5,100,15,85,0,1.25472176900257,0,0,270,0,35,885,35
5,27,1.5,50,100,-50,1,1.23706680469149,0,0,272,0,86,806,50
5,28,1.5,48,100,-52,1,1.24406328426448,0,0,276,0,434,429,50
5,29,1.5,75,0,75,0,0.882371221134235,0,0,94,0,194,356,50
5,30,1.5,5,83,-78,0,1.0468143011185,0,0,271,0,83,618,-33
5,31,1.5,0,68,-68,0,0.79723224243935,0,0,256,0,37,427,-18
5,32,1.5,3,100,-97,0,0.701696803609593,0,0,104,0,117,250,-50
5,33,1.5,100,15,85,0,0.945507679803995,0,0,281,0,0,550,35
5,34,1.5,100,0,100,0,0.699950174157493,0,0,275,0,28,340,50
5,35,1.5,53,23,30,NaN,NaN,0,0,118,0,84,769,0
5,36,1.5,85,15,70,NaN,NaN,0,0,74,0,715,399,0
5,37,1.5,28,85,-57,1,1.1208489306282,0,0,114,0,241,494,35
5,38,1.5,48,80,-32,1,0.643862720729885,0,0,65,0,176,136,30
5,39,1.5,50,43,7,1,0.762398969176502,0,0,271,0,8,409,-7
5,40,1.5,28,85,-57,0,0.860178521961643,0,0,268,0,55,476,-35
5,41,10,86,19,67,0,1.72653087984872,0,0,45,0,923,398,31
5,42,10,43,70,-27,1,3.94984225503867,0,0,1,0,1562,1444,20
5,43,10,37,94,-57,0,3.95800244987913,0,0,270,0,852,2632,-44
5,44,10,18,95,-77,0,4.1668179477274,0,0,90,0,571,2849,-45
5,45,10,27,54,-27,1,4.91823749923242,0,0,55,0,1408,2832,4
5,46,10,75,34,41,0,4.35872048181955,0,0,0,60,1489,1852,16
5,47,10,95,37,58,0,3.03078612321042,0,0,106,0,861,1293,13
5,48,10,72,35,37,0,2.32450544172934,0,0,0,0,124,1729,15
5,49,10,83,33,50,0,2.84584837216607,0,0,111,0,1415,985,17
5,50,10,56,28,28,0,3.67499051930645,0,0,265,0,1457,1544,22
5,51,10,87,43,44,0,3.46053092694274,0,0,99,0,1895,800,7
5,52,10,100,9,91,0,2.95282897328798,0,0,104,0,478,1906,41
5,53,10,55,11,44,0,2.17731613861179,0,0,91,0,417,1071,39
5,54,10,41,79,-38,1,3.63334611567552,0,0,286,0,558,2011,29
5,55,10,97,6,91,0,2.42223488381569,0,0,44,0,670,1084,44
5,56,10,66,46,20,1,2.70822025028428,0,0,59,0,823,1417,-4
5,57,10,84,19,65,0,2.43070449711195,0,0,71,0,975,622,31
5,58,10,80,24,56,0,4.39669623911141,0,0,189,0,2089,1296,26
5,59,10,69,22,47,0,3.8673766518059,0,0,268,0,986,2290,28
5,60,10,3,59,-56,0,2.56680514836989,0,0,55,0,239,1921,-9
5,61,1.5,28,93,-65,0,1.05778824174558,0,0,0,53,327,351,-43
5,62,1.5,98,25,73,0,1.01483522444687,0,0,0,282,586,94,25
5,63,1.5,42,98,-56,1,1.12458127189166,0,0,264,0,80,703,48
5,64,1.5,99,27,72,NaN,NaN,0,0,0,96,425,690,0
5,65,1.5,77,1,76,0,0.874090277628056,0,0,38,0,214,325,49
5,66,1.5,60,5,55,0,0.678545360031421,0,0,0,262,197,79,45
5,67,1.5,26,95,-69,1,0.650342999755594,0,0,0,272,282,36,45
5,68,1.5,59,31,28,1,0.927559899981134,0,0,0,260,320,227,-19
5,69,1.5,100,7,93,0,0.673359204829467,0,0,97,0,113,230,43
5,70,1.5,88,23,65,1,0.813134539863313,0,0,0,267,399,76,-27
5,71,1.5,5,96,-91,0,0.778217346280144,0,0,26,71,202,242,-46
5,72,1.5,98,38,60,1,0.657344913019188,0,0,104,0,145,180,-12
5,73,1.5,93,23,70,0,1.31717962016955,0,0,266,0,579,349,27
5,74,1.5,43,82,-39,1,0.966148154879193,0,0,0,63,353,232,32
5,75,1.5,94,18,76,0,1.02127233582542,0,0,270,0,101,547,32
5,76,1.5,50,96,-46,1,0.770922919375153,0,0,104,0,199,238,46
5,77,1.5,60,35,25,NaN,NaN,0,0,68,0,204,901,0
5,78,1.5,82,32,50,1,0.81528597921897,0,0,265,0,95,334,-18
5,79,1.5,94,0,94,0,0.661057934494238,0,0,83,0,209,122,50
5,80,1.5,4,99,-95,0,0.641539818270758,0,0,78,0,207,100,-49
5,81,10,86,8,78,0,1.03874889398139,0,0,21,0,409,283,42
5,82,10,90,16,74,0,3.46363175268198,0,0,38,0,763,1927,34
5,83,10,32,56,-24,1,3.56322223358256,0,0,0,19,1330,1261,6
5,84,10,89,40,49,1,2.71481524054252,0,0,0,72,985,774,-10
5,85,10,37,64,-27,0,3.79601932208971,0,0,111,0,374,1799,-14
5,86,10,97,9,88,0,3.4168295697873,0,0,53,0,685,2093,41
5,87,10,39,99,-60,0,4.4298302767711,0,0,0,76,1302,2471,-49
5,88,10,4,71,-67,0,5.28180780785806,0,0,0,95,912,1764,-21
5,89,10,61,39,22,1,3.20425093976701,0,0,93,0,194,2119,-11
5,90,10,96,16,80,0,4.08856315234516,0,0,75,0,1121,1977,34
5,91,10,83,3,80,0,2.13666247778383,0,0,51,0,379,1398,47
5,92,10,90,25,65,0,3.26468293019207,0,0,82,0,988,1782,25
5,93,10,91,18,73,0,3.86700534965712,0,0,0,0,293,2830,32
5,94,10,99,14,85,0,3.55647992995,0,0,0,82,1005,1352,36
5,95,10,85,8,77,0,2.93081951021668,0,0,56,0,733,1401,42
5,96,10,53,44,9,1,2.46654209740154,0,0,0,93,603,1414,-6
5,97,10,55,45,10,1,2.25246437269379,0,0,93,0,239,1111,-5
5,98,10,62,0,62,0,2.88643833807146,0,0,0,0,697,687,50
5,99,10,81,18,63,0,2.93552297262431,0,0,265,0,772,1168,32
5,100,10,29,79,-50,0,4.30334272867549,0,0,35,0,1225,2125,-29
5,101,1.5,39,57,-18,1,0.99551906036686,0,0,59,0,378,277,7
5,102,1.5,81,22,59,1,1.11323210478622,0,0,50,0,406,322,-28
5,103,1.5,11,90,-79,0,0.946177834901391,0,0,274,0,78,526,-40
5,104,1.5,97,23,74,1,0.937370427212954,0,0,91,0,242,309,-27
5,105,1.5,4,89,-85,0,0.937085460360322,0,0,268,0,93,514,-39
5,106,1.5,98,15,83,1,0.800788592519893,0,0,270,0,184,232,-35
5,107,1.5,56,28,28,1,0.813267967139836,0,0,286,0,219,259,-22
5,108,1.5,100,7,93,0,0.642333438876449,0,0,109,0,98,210,43
5,109,1.5,4,65,-61,0,0.598192254707101,0,0,82,158,312,0,-15
5,110,1.5,16,72,-56,0,1.08270291771987,0,0,270,0,303,435,-22
5,111,1.5,48,87,-39,1,1.30631888141761,0,0,275,0,254,707,37
5,112,1.5,18,61,-43,NaN,NaN,0,0,94,0,188,964,0
5,113,1.5,74,29,45,1,1.38114350907381,0,0,69,0,282,672,-21
5,114,1.5,17,56,-39,0,0.698769554077444,0,0,108,0,116,248,-6
5,115,1.5,98,4,94,0,1.27452605956387,0,0,48,0,343,596,46
5,116,1.5,3,77,-74,0,0.787502918685277,0,0,0,264,319,86,-27
5,117,1.5,94,12,82,1,0.55192981834989,0,0,243,0,113,106,-38
5,118,1.5,99,10,89,1,0.949772220810701,0,0,263,0,108,509,-40
5,119,1.5,96,14,82,1,0.715450982268521,0,0,65,0,163,220,-36
5,120,1.5,84,19,65,0,0.722622547407809,0,0,0,259,267,121,31
5,121,10,74,6,68,0,2.87444346747725,0,0,92,0,183,2282,44
5,122,10,16,76,-60,0,3.16294493426904,0,0,35,0,1458,957,-26
5,123,10,79,0,79,0,2.0152669009276,0,0,86,0,461,1210,50
5,124,10,93,47,46,0,3.44195978213065,0,0,260,0,1136,1473,3
5,125,10,36,96,-60,1,1.72364317550637,0,0,81,0,485,833,46
5,126,10,48,54,-6,1,3.91023608888645,0,0,0,58,1738,1711,4
5,127,10,74,31,43,0,5.18102342452585,0,0,98,0,803,3035,19
5,128,10,100,6,94,0,4.4000361472099,0,0,0,0,671,2969,44
5,129,10,16,86,-70,0,4.54605147142138,0,0,0,32,835,1968,-36
5,130,10,100,0,100,0,3.71154838538678,0,0,39,0,581,2119,50
5,131,10,62,26,36,0,3.9635825475998,0,0,0,0,745,1807,24
5,132,10,95,10,85,0,3.43962359731631,0,0,265,0,884,1593,40
5,133,10,49,67,-18,1,2.62458187563425,0,0,0,0,399,1560,17
5,134,10,77,48,29,1,3.41846178987726,0,0,0,0,0,1260,-2
5,135,10,11,61,-50,0,2.66005028687687,0,0,0,0,111,1662,-11
5,136,10,81,2,79,0,2.01254643348511,0,0,13,0,323,1281,48
5,137,10,5,64,-59,0,3.5637915635416,0,0,0,73,1710,955,-14
5,138,10,100,9,91,0,3.37600474772444,0,0,0,0,709,1161,41
5,139,10,66,50,16,1,2.34764360295594,0,0,3,0,380,558,0
5,140,10,29,89,-60,0,3.15224660247441,0,0,0,0,860,1213,-39
5,141,1.5,62,21,41,1,0.79659438760973,0,0,45,0,165,288,-29
5,142,1.5,93,10,83,0,1.12843677679302,0,0,87,0,408,337,40
5,143,1.5,96,8,88,0,0.638765013927696,0,0,0,265,0,187,42
5,144,1.5,37,65,-28,1,0.647816032051196,0,0,0,268,255,60,15
5,145,1.5,93,23,70,0,0.69768885351732,0,0,0,264,246,117,27
5,146,1.5,59,15,44,0,1.13021872522768,0,0,0,285,347,374,35
5,147,1.5,12,55,-43,0,0.777158682351001,0,0,0,250,292,125,-5
5,148,1.5,96,11,85,0,0.973627930985458,0,0,0,0,0,91,39
5,149,1.5,12,84,-72,1,0.665967273376737,0,0,209,0,107,225,34
5,150,1.5,84,46,38,0,0.842458051500216,0,0,0,82,326,162,4
5,151,1.5,73,5,68,0,0.697606140682183,0,0,0,0,0,0,45
5,152,1.5,97,37,60,NaN,NaN,0,0,0,80,766,292,0
5,153,1.5,46,97,-51,1,1.00048364176473,0,0,70,0,235,434,47
5,154,1.5,96,5,91,0,0.82685460702487,0,0,0,261,372,78,45
5,155,1.5,61,44,17,1,1.02055207003286,0,0,0,256,570,116,-6
5,156,1.5,85,15,70,0,1.02228571900378,0,0,0,78,372,264,35
5,157,1.5,53,23,30,1,1.35997445671637,0,0,42,23,500,472,-27
5,158,1.5,8,82,-74,0,0.676235739923868,0,0,0,259,219,96,-32
5,159,1.5,26,72,-46,0,1.46002016008424,0,0,0,0,602,458,-22
5,160,1.5,45,96,-51,1,1.19625496310982,0,0,17,0,271,578,46
6,1,10,53,23,30,0,4.31595311538331,0,0,127,0,1244,369,27
6,2,10,75,0,75,0,1.6379282254602,0,0,123,0,284,412,50
6,3,10,28,85,-57,0,1.95607590470172,0,0,81,0,584,518,-35
6,4,10,80,45,35,1,1.89422753242616,0,0,120,0,306,814,-5
6,5,10,80,45,35,1,1.89900284028772,0,0,122,0,460,671,-5
6,6,10,98,38,60,0,2.75183980000656,0,0,286,0,1245,606,12
6,7,10,5,83,-78,0,1.89764049346559,0,0,119,0,393,845,-33
6,8,10,48,60,-12,1,2.34560476152183,0,0,105,0,304,1354,10
6,9,10,53,23,30,0,3.34022480471322,0,0,0,0,896,697,27
6,10,10,3,100,-97,0,1.27860434554168,0,0,125,0,550,328,-50
6,11,10,30,100,-70,0,2.09678191007697,0,0,108,0,417,1054,-50
6,12,10,28,85,-57,0,1.16553106861102,0,0,110,0,246,265,-35
6,13,10,53,40,13,0,4.98775220409152,0,0,75,0,2757,1099,10
6,14,10,50,100,-50,1,2.65086101131965,0,0,0,0,981,896,50
6,15,10,48,80,-32,1,3.56082688170864,0,0,121,0,1472,819,30
6,16,10,48,80,-32,1,3.26636677012357,0,0,136,0,1985,291,30
6,17,10,0,68,-68,0,2.83140683151214,0,0,286,0,901,612,-18
6,18,10,25,55,-30,0,3.03054251256253,0,0,132,0,832,619,-5
6,19,10,50,100,-50,1,2.11769467339036,0,0,127,0,328,495,50
6,20,10,75,0,75,0,2.77707234684203,0,0,0,0,1062,550,50
6,21,1.5,30,100,-70,NaN,NaN,0,0,0,0,156,835,0
6,22,1.5,100,0,100,1,0.795161100733822,0,0,114,0,392,69,-50
6,23,1.5,50,43,7,1,1.16363833326977,0,0,8,0,117,439,-7
6,24,1.5,5,83,-78,NaN,NaN,0,0,125,0,560,323,0
6,25,1.5,48,60,-12,1,1.08191503246053,0,0,106,0,185,565,10
6,26,1.5,85,15,70,1,1.01493725685577,0,0,143,0,159,525,-35
6,27,1.5,0,68,-68,0,0.870011085611623,0,0,110,0,0,220,-18
6,28,1.5,85,15,70,0,0.899092798044876,0,0,117,0,104,457,35
6,29,1.5,100,15,85,0,0.99088412261699,0,0,129,0,117,180,35
6,30,1.5,98,38,60,0,1.03929347025041,0,0,122,0,145,228,12
6,31,1.5,48,100,-52,1,1.08569657880435,0,0,266,0,46,382,50
6,32,1.5,53,0,53,0,0.962051454302127,0,0,270,0,31,598,50
6,33,1.5,100,0,100,NaN,NaN,0,0,138,0,48,863,0
6,34,1.5,100,15,85,0,0.641008825801691,0,0,130,0,264,43,35
6,35,1.5,53,0,53,0,1.12754685891196,0,0,96,0,315,414,50
6,36,1.5,25,55,-30,0,0.578617688268423,0,0,129,0,15,0,-5
6,37,1.5,53,40,13,0,1.36309097956837,0,0,116,0,442,242,10
6,38,1.5,50,43,7,0,0.9800565897458,0,0,113,0,53,324,7
6,39,1.5,48,100,-52,1,0.908454140237154,0,0,131,0,16,317,50
6,40,1.5,3,100,-97,0,0.799559069018869,0,0,95,0,71,394,-50
6,41,10,19,65,-46,0,1.31497535305971,0,0,277,0,323,304,-15
6,42,10,84,8,76,1,1.4591284309754,0,0,106,0,257,575,-42
6,43,10,11,88,-77,0,2.01675452428026,0,0,126,0,537,485,-38
6,44,10,38,89,-51,0,1.63948135517785,0,0,127,0,122,831,-39
6,45,10,45,75,-30,1,2.43351673332654,0,0,121,0,614,759,25
6,46,10,49,90,-41,1,0.79148581321715,0,0,266,0,230,228,40
6,47,10,24,95,-71,0,1.68810231484895,0,0,117,0,707,297,-45
6,48,10,88,1,87,0,2.28346296998279,0,0,133,0,780,622,49
6,49,10,93,0,93,0,1.03080000909176,0,0,286,0,171,531,50
6,50,10,26,85,-59,0,1.38568214933912,0,0,104,0,206,829,-35
6,51,10,45,90,-45,1,2.46781418438331,0,0,99,0,867,844,40
6,52,10,95,4,91,0,3.48776367521714,0,0,265,0,1747,594,46
6,53,10,43,71,-28,1,3.17867274965829,0,0,37,0,1335,769,21
6,54,10,46,86,-40,1,2.57837075724819,0,0,130,0,1279,307,36
6,55,10,37,74,-37,0,2.57832306152341,0,0,131,0,458,620,-24
6,56,10,49,57,-8,1,2.13823009712723,0,0,128,0,438,690,7
6,57,10,46,66,-20,1,2.02759443388641,0,0,126,0,1046,242,16
6,58,10,53,0,53,0,2.28167860657413,0,0,117,0,769,433,50
6,59,10,32,94,-62,0,2.17303257947788,0,0,286,0,1188,549,-44
6,60,10,22,86,-64,0,1.38899217214203,0,0,133,0,165,689,-36
6,61,1.5,46,65,-19,NaN,NaN,0,0,86,0,307,546,0
6,62,1.5,48,100,-52,1,0.96333772946673,0,0,126,0,35,253,50
6,63,1.5,35,95,-60,0,0.67641474960692,0,0,134,0,391,0,-45
6,64,1.5,94,15,79,1,1.36753241737097,0,0,262,0,267,177,-35
6,65,1.5,46,83,-37,0,1.20714920940372,0,0,130,0,286,246,-33
6,66,1.5,40,72,-32,1,0.860832375772588,0,0,197,0,94,142,22
6,67,1.5,84,17,67,0,1.35261754216117,0,0,128,0,65,530,33
6,68,1.5,29,77,-48,1,0.624213290120679,0,0,118,0,44,0,27
6,69,1.5,24,59,-35,0,1.46203424761916,0,0,132,0,30,792,-9
6,70,1.5,55,1,54,1,1.01021024845977,0,0,262,0,281,58,-49
6,71,1.5,50,78,-28,0,1.27864419260004,0,0,22,0,71,588,-28
6,72,1.5,48,96,-48,1,0.945632050719723,0,0,126,0,189,420,46
6,73,1.5,20,54,-34,0,1.34672832785509,0,0,117,0,206,372,-4
6,74,1.5,36,64,-28,0,0.962989067695162,0,0,115,0,78,240,-14
6,75,1.5,62,38,24,0,0.819408036586537,0,0,269,0,21,450,12
6,76,1.5,47,82,-35,NaN,NaN,0,0,270,0,456,323,0
6,77,1.5,31,59,-28,0,0.93172331376627,0,0,85,0,162,436,-9
6,78,1.5,49,53,-4,1,0.740800956969906,0,0,277,0,126,0,3
6,79,1.5,90,5,85,0,0.82990562372288,0,0,131,0,81,157,45
6,80,1.5,4,51,-47,1,0.995721917912306,0,0,0,127,187,151,1
6,81,10,18,52,-34,0,1.61886201112065,0,0,114,0,592,387,-2
6,82,10,48,64,-16,1,3.04770391670172,0,0,124,0,1085,521,14
6,83,10,43,71,-28,1,2.28275357156963,0,0,286,0,488,1088,21
6,84,10,49,61,-12,1,0.988764983525471,0,0,130,0,38,374,11
6,85,10,16,89,-73,0,0.998994206758653,0,0,84,0,79,324,-39
6,86,10,91,34,57,0,1.54455056529332,0,0,48,0,331,871,16
6,87,10,10,70,-60,0,2.31660908251069,0,0,129,0,160,1812,-20
6,88,10,2,94,-92,0,2.24460363433172,0,0,114,0,266,1307,-44
6,89,10,49,62,-13,1,1.56793354444017,0,0,125,0,180,672,12
6,90,10,18,78,-60,0,1.30210384714883,0,0,121,0,331,347,-28
6,91,10,52,14,38,0,1.66171058081818,0,0,122,0,605,158,36
6,92,10,41,74,-33,0,1.26521120539473,0,0,264,0,447,0,-24
6,93,10,49,63,-14,0,2.24070918798316,0,0,122,0,211,1308,-13
6,94,10,46,66,-20,1,1.21271059108403,0,0,125,0,447,316,16
6,95,10,87,42,45,1,2.27886818137631,0,0,105,0,167,1701,-8
6,96,10,7,80,-73,0,1.46555739181713,0,0,122,0,385,374,-30
6,97,10,78,36,42,0,2.0242738455745,0,0,106,0,377,875,14
6,98,10,49,71,-22,1,1.23284784609132,0,0,107,0,255,631,21
6,99,10,19,97,-78,0,2.32520004821708,0,0,54,0,148,729,-47
6,100,10,87,33,54,0,4.57245075202809,0,0,132,0,1733,1393,17
6,101,1.5,11,80,-69,0,0.910643615421577,0,0,115,0,121,455,-30
6,102,1.5,52,14,38,0,1.31903733818035,0,0,134,0,359,232,36
6,103,1.5,40,92,-52,0,1.02265460596755,0,0,126,0,46,296,-42
6,104,1.5,48,60,-12,1,1.21833898827026,0,0,271,0,370,201,10
6,105,1.5,42,89,-47,0,0.813987930843723,0,0,124,0,356,123,-39
6,106,1.5,4,67,-63,1,0.801716545804084,0,0,154,0,214,254,17
6,107,1.5,98,38,60,1,1.3502327560127,0,0,135,0,288,249,-12
6,108,1.5,8,53,-45,0,0.908436933550547,0,0,129,0,26,213,-3
6,109,1.5,40,55,-15,0,1.30886275372177,0,0,129,0,50,637,-5
6,110,1.5,83,8,75,0,1.42851562545911,0,0,127,0,439,297,42
6,111,1.5,12,56,-44,0,0.678161077186815,0,0,124,0,58,140,-6
6,112,1.5,88,1,87,0,0.975203097121266,0,0,274,0,67,280,49
6,113,1.5,85,42,43,0,0.900954138727684,0,0,139,0,85,246,8
6,114,1.5,48,60,-12,0,1.1086364103503,0,0,266,0,53,391,-10
6,115,1.5,24,64,-40,0,0.884273616149585,0,0,139,0,153,181,-14
6,116,1.5,6,92,-86,NaN,NaN,0,0,271,0,482,314,0
6,117,1.5,32,92,-60,NaN,NaN,0,0,125,0,762,352,0
6,118,1.5,1,66,-65,0,0.948448815222946,0,0,128,0,66,331,-16
6,119,1.5,40,72,-32,0,0.570152904918359,0,0,115,0,82,153,-22
6,120,1.5,31,81,-50,0,0.703282535254402,0,0,265,0,36,93,-31
6,121,10,57,9,48,0,3.82716674211042,0,0,132,0,716,2447,41
6,122,10,50,64,-14,1,3.58931903877965,0,0,0,0,1225,1143,14
6,123,10,43,71,-28,1,2.49690102863315,0,0,117,0,458,978,21
6,124,10,46,78,-32,1,3.75284231580372,0,0,223,0,120,2443,28
6,125,10,53,0,53,0,2.701648202059,0,0,112,0,436,1163,50
6,126,10,14,58,-44,0,2.49215530419315,0,0,127,0,1261,201,-8
6,127,10,64,36,28,0,2.69936303355644,0,0,126,0,355,1270,14
6,128,10,34,63,-29,0,2.39458192975871,0,0,265,0,319,1030,-13
6,129,10,48,100,-52,1,3.50180704693048,0,0,88,0,1241,510,50
6,130,10,3,61,-58,0,2.44406080870613,0,0,0,58,602,603,-11
6,131,10,7,65,-58,0,1.66730033843851,0,0,123,0,21,979,-15
6,132,10,84,17,67,0,2.4399327136889,0,0,85,0,381,1693,33
6,133,10,78,39,39,0,3.16121400193151,0,0,113,0,1654,376,11
6,134,10,94,12,82,0,2.79820608021691,0,0,269,0,1405,495,38
6,135,10,62,31,31,0,1.83405515163031,0,0,116,0,793,363,19
6,136,10,43,71,-28,0,4.60413822067494,0,0,271,0,1028,1521,-21
6,137,10,59,1,58,0,4.40607750462004,0,0,122,0,1296,1762,49
6,138,10,50,100,-50,1,2.05604946074163,0,0,246,0,286,684,50
6,139,10,82,9,73,0,2.25674913888724,0,0,97,0,73,665,41
6,140,10,45,75,-30,1,3.65737932617412,0,0,126,0,886,944,25
6,141,1.5,98,38,60,1,0.996910990401375,0,0,119,0,201,395,-12
6,142,1.5,85,42,43,1,1.23260031133032,0,0,123,0,303,357,-8
6,143,1.5,99,32,67,0,1.29817377994914,0,0,0,267,187,289,18
6,144,1.5,26,97,-71,0,1.21780256232523,0,0,0,175,388,145,-47
6,145,1.5,97,50,47,1,1.02010862034513,0,0,266,0,73,456,0
6,146,1.5,71,1,70,0,1.10179328158483,0,0,0,116,410,75,49
6,147,1.5,98,37,61,0,1.24411611159303,0,0,0,108,354,175,13
6,148,1.5,91,34,57,0,1.06917665195579,0,0,0,253,369,54,16
6,149,1.5,20,100,-80,0,0.868771902427397,0,0,212,0,0,559,-50
6,150,1.5,45,95,-50,1,0.924468432051071,0,0,187,0,86,494,45
6,151,1.5,81,34,47,0,0.800242204593815,0,0,0,261,447,23,16
6,152,1.5,42,86,-44,1,1.02660972851663,0,0,240,0,80,598,36
6,153,1.5,100,15,85,1,1.02026680109702,0,0,128,0,139,248,-35
6,154,1.5,50,99,-49,0,1.05396564063994,0,0,122,0,59,413,-49
6,155,1.5,58,42,16,0,1.41436871176484,0,0,130,0,461,292,8
6,156,1.5,49,62,-13,1,1.40056774299956,0,0,122,0,361,258,12
6,157,1.5,6,83,-77,0,0.690812820525025,0,0,270,0,73,0,-33
6,158,1.5,67,38,29,NaN,NaN,0,0,93,0,302,508,0
6,159,1.5,47,53,-6,0,0.745770670189813,0,0,123,0,152,263,-3
6,160,1.5,94,12,82,0,1.02286651987379,0,0,134,0,107,234,38
7,1,10,48,80,-32,0,0.998879807277262,0,0,94,0,167,383,-30
7,2,10,5,83,-78,0,3.46640126639159,0,0,0,0,413,497,-33
7,3,10,98,38,60,0,3.27868642998146,0,0,0,0,0,0,12
7,4,10,85,15,70,0,3.07573716963634,0,0,0,0,0,0,35
7,5,10,25,55,-30,0,2.17686238641545,0,0,0,0,0,0,-5
7,6,10,53,40,13,0,1.38621911862356,0,0,0,0,0,0,10
7,7,10,80,45,35,0,8.7362969253636,0,0,286,0,4885,2951,5
7,8,10,28,85,-57,0,2.38574246743701,0,0,233,0,1093,572,-35
7,9,10,0,68,-68,0,3.06698809976933,0,0,85,0,648,1454,-18
7,10,10,3,100,-97,0,1.7440766937998,0,0,286,0,887,202,-50
7,11,10,30,100,-70,0,3.42346009613539,0,0,286,0,983,2052,-50
7,12,10,100,0,100,0,5.74240132072737,0,0,5,0,5231,151,50
7,13,10,85,15,70,0,2.88800271173932,0,0,0,97,1243,665,35
7,14,10,50,43,7,0,3.58053130250937,0,0,286,0,1383,1809,7
7,15,10,53,23,30,0,3.79746404156322,0,0,0,88,2462,868,27
7,16,10,98,38,60,0,4.03692375638821,0,0,286,0,1684,1338,12
7,17,10,3,100,-97,0,3.49111649070255,0,0,0,0,938,690,-50
7,18,10,5,83,-78,0,4.80733817727469,0,0,286,0,2129,2245,-33
7,19,10,75,0,75,0,5.30260260699106,0,0,138,0,827,2494,50
7,20,10,100,15,85,0,4.7769994349519,0,0,0,0,2521,1627,35
7,21,1.5,53,0,53,0,0.699299254283687,0,0,0,0,126,160,50
7,22,1.5,80,45,35,0,0.57583784295548,0,0,286,0,7,250,5
7,23,1.5,48,60,-12,0,0.849723606660518,0,0,158,0,158,0,-10
7,24,1.5,48,100,-52,0,1.28807968834099,0,0,286,0,757,149,-50
7,25,1.5,25,55,-30,NaN,NaN,0,0,255,0,574,246,0
7,26,1.5,48,60,-12,0,0.322247941076967,0,0,286,0,36,0,-10
7,27,1.5,48,100,-52,0,0.414241318070708,0,0,258,0,86,0,-50
7,28,1.5,53,40,13,0,0.430906601171046,0,0,286,0,144,0,10
7,29,1.5,30,100,-70,0,0.318770409943681,0,0,0,0,0,0,-50
7,30,1.5,53,23,30,0,0.618087733149878,0,0,251,0,94,188,27
7,31,1.5,50,100,-50,0,0.601251290314394,0,0,104,0,77,191,-50
7,32,1.5,53,0,53,0,0.44110645355704,0,0,0,102,61,45,50
7,33,1.5,48,80,-32,0,0.687720464205086,0,0,286,0,190,125,-30
7,34,1.5,28,85,-57,0,0.588107913094063,0,0,111,0,48,207,-35
7,35,1.5,100,15,85,0,0.884779656191313,0,0,0,100,206,302,35
7,36,1.5,75,0,75,0,0.881140323261207,0,0,251,0,60,472,50
7,37,1.5,50,43,7,0,0.565575805550907,0,0,207,45,172,58,7
7,38,1.5,50,100,-50,0,0.750770337494941,0,0,231,19,163,105,-50
7,39,1.5,100,0,100,0,0.768631625661328,0,0,0,0,280,105,50
7,40,1.5,0,68,-68,0,0.87373698549618,0,0,97,0,89,453,-18
7,41,10,28,85,-57,0,2.22866733676528,0,0,106,0,808,759,-35
7,42,10,85,27,58,0,3.65521279295717,0,0,0,0,1108,1307,23
7,43,10,20,90,-70,0,3.16419324542949,0,0,88,0,2226,500,-40
7,44,10,91,31,60,0,2.40518283245729,0,0,252,0,877,1014,19
7,45,10,90,41,49,0,1.54851809272168,0,0,286,0,817,334,9
7,46,10,8,96,-88,0,2.91732898536247,0,0,0,0,1239,1045,-46
7,47,10,87,37,50,0,2.58318231626163,0,0,0,100,1506,404,13
7,48,10,71,41,30,0,3.20445019634099,0,0,12,39,1438,1164,9
7,49,10,11,70,-59,0,2.77810367183429,0,0,108,0,295,1751,-20
7,50,10,36,60,-24,0,3.71320756760451,0,0,249,0,1639,1264,-10
7,51,10,76,17,59,0,2.62478831983208,0,0,286,0,1646,568,33
7,52,10,46,51,-5,0,2.23873346117489,0,0,74,0,446,1377,-1
7,53,10,74,49,25,0,2.50803866434035,0,0,0,49,687,1470,1
7,54,10,71,49,22,0,4.43794528115905,0,0,219,11,964,2682,1
7,55,10,79,46,33,0,3.47458674679274,0,0,108,35,0,755,4
7,56,10,41,85,-44,0,2.27020089177222,0,0,161,69,913,675,-35
7,57,10,29,67,-38,0,2.4182404788753,0,0,0,100,925,901,-17
7,58,10,33,79,-46,0,2.85559375166395,0,0,0,96,2483,37,-29
7,59,10,71,48,23,0,3.29198617535531,0,0,0,107,1458,524,2
7,60,10,70,38,32,0,2.9190218668391,0,0,0,88,420,39,12
7,61,1.5,76,47,29,0,0.685102052307229,0,0,0,0,151,54,3
7,62,1.5,34,81,-47,0,0.736910323215852,0,0,0,113,370,1,-31
7,63,1.5,74,43,31,0,0.73875444107216,0,0,252,0,113,245,7
7,64,1.5,15,54,-39,0,1.05187774400201,0,0,0,0,568,57,-4
7,65,1.5,100,10,90,0,1.12893313243967,0,0,246,0,288,440,40
7,66,1.5,76,16,60,NaN,NaN,0,0,0,0,573,471,0
7,67,1.5,34,82,-48,0,0.422539395618514,0,0,152,0,0,0,-32
7,68,1.5,97,8,89,0,0.292445921875697,0,0,250,0,7,0,42
7,69,1.5,50,35,15,0,0.239678009344971,0,0,0,0,0,0,15
7,70,1.5,52,45,7,0,0.468976209149332,0,0,208,25,0,183,5
7,71,1.5,99,48,51,0,0.694883212358945,0,0,250,0,27,315,2
7,72,1.5,31,82,-51,0,0.530043406702134,0,0,218,11,0,244,-32
7,73,1.5,0,82,-82,0,0.635916721330432,0,0,241,0,0,314,-32
7,74,1.5,75,27,48,0,0.465115304356914,0,0,227,0,0,163,23
7,75,1.5,39,94,-55,0,0.540999440989253,0,0,237,0,0,215,-44
7,76,1.5,91,50,41,0,0.726202727135387,0,0,0,85,414,0,0
7,77,1.5,21,51,-30,0,0.606621540216111,0,0,199,44,0,312,-1
7,78,1.5,31,66,-35,0,0.644434559525507,0,0,119,0,51,258,-16
7,79,1.5,79,27,52,0,0.929030636134485,0,0,265,0,105,437,23
7,80,1.5,13,59,-46,0,0.802085354422161,0,0,267,0,109,357,-9
7,81,10,44,80,-36,0,2.91216551574053,0,0,0,114,1278,897,-30
7,82,10,46,54,-8,0,2.65663308670719,0,0,251,0,1746,494,-4
7,83,10,67,36,31,0,2.91517877231854,0,0,286,0,1200,888,14
7,84,10,90,26,64,0,2.14828323862275,0,0,261,0,619,729,24
7,85,10,78,43,35,0,1.58419055879585,0,0,94,0,492,710,7
7,86,10,83,26,57,0,1.97436985390141,0,0,252,0,582,1001,24
7,87,10,89,31,58,0,3.80893446066329,0,0,114,0,477,2490,19
7,88,10,38,58,-20,0,5.18172640196826,0,0,0,67,2573,2161,-8
7,89,10,4,51,-47,0,2.4915756334849,0,0,108,0,1354,578,-1
7,90,10,33,85,-52,0,2.37277598546461,0,0,0,96,1515,428,-35
7,91,10,21,100,-79,0,2.58477437348392,0,0,269,0,1976,245,-50
7,92,10,76,44,32,0,1.32666247365614,0,0,286,0,32,961,6
7,93,10,32,87,-55,0,3.45555269747638,0,0,35,0,1755,847,-37
7,94,10,81,20,61,0,3.65055133151964,0,0,260,0,147,3169,30
7,95,10,41,97,-56,0,3.50938228335781,0,0,0,269,3182,0,-47
7,96,10,38,61,-23,0,2.82173763149603,0,0,286,0,1365,1071,-11
7,97,10,81,17,64,0,3.36950855516898,0,0,286,0,3084,0,33
7,98,10,58,9,49,0,3.32647501299289,0,0,286,0,2291,286,41
7,99,10,77,40,37,0,2.83881707889395,0,0,0,21,750,1682,10
7,100,10,98,35,63,0,2.0665995943391,0,0,0,270,1269,45,15
7,101,1.5,86,38,48,0,0.473972141464401,0,0,0,0,0,100,12
7,102,1.5,89,44,45,0,0.620495742339699,0,0,257,0,36,248,6
7,103,1.5,40,91,-51,0,0.64832112318436,0,0,119,0,57,256,-41
7,104,1.5,38,65,-27,0,0.914842490228693,0,0,108,0,50,510,-15
7,105,1.5,9,83,-74,0,0.794637641910413,0,0,101,0,122,339,-33
7,106,1.5,51,35,16,0,0.656367140098155,0,0,266,0,2,319,15
7,107,1.5,28,68,-40,0,0.995480460219369,0,0,253,0,72,288,-18
7,108,1.5,67,48,19,0,0.881235412003662,0,0,256,0,182,313,2
7,109,1.5,55,44,11,0,0.595685731154845,0,0,265,0,14,235,6
7,110,1.5,61,44,17,0,0.696142609919661,0,0,267,0,54,310,6
7,111,1.5,100,11,89,0,0.574713380848152,0,0,207,24,0,288,39
7,112,1.5,38,92,-54,0,0.779702973913118,0,0,106,0,94,348,-42
7,113,1.5,100,19,81,0,0.760870573103603,0,0,129,0,39,294,31
7,114,1.5,65,21,44,0,0.694708128326965,0,0,206,25,0,409,29
7,115,1.5,26,62,-36,0,0.783092963030867,0,0,0,224,326,110,-12
7,116,1.5,99,46,53,0,0.739566770610509,0,0,0,126,393,10,4
7,117,1.5,30,93,-63,0,0.794065600112845,0,0,0,110,408,39,-43
7,118,1.5,24,65,-41,0,0.710465993147409,0,0,0,265,322,9,-15
7,119,1.5,34,53,-19,0,0.614278146091237,0,0,37,203,233,42,-3
7,120,1.5,41,61,-20,0,0.602115843193133,0,0,16,210,316,0,-11
7,121,10,9,70,-61,0,3.83699228065598,0,0,0,99,2750,87,-20
7,122,10,96,26,70,0,2.48646408533477,0,0,0,0,1230,746,24
7,123,10,72,31,41,0,2.61437655539339,0,0,0,115,1592,518,19
7,124,10,43,86,-43,0,2.08150166048199,0,0,95,0,1299,380,-36
7,125,10,65,34,31,0,1.67012995255209,0,0,105,0,524,701,16
7,126,10,50,26,24,0,2.97146798699123,0,0,79,0,616,554,24
7,127,10,21,67,-46,0,4.73587249751836,0,0,40,0,1295,2994,-17
7,128,10,13,98,-85,0,2.98040331004358,0,0,0,94,2126,87,-48
7,129,10,33,63,-30,0,4.43276913303725,0,0,0,110,2066,1621,-13
7,130,10,100,39,61,0,3.705417233753,0,0,15,0,229,2617,11
7,131,10,64,31,33,0,4.82093073559918,0,0,0,0,2398,1585,19
7,132,10,87,31,56,0,2.6141492480192,0,0,29,0,295,1909,19
7,133,10,60,45,15,0,3.68864448528075,0,0,75,0,2782,514,5
7,134,10,44,86,-42,0,3.78349535443795,0,0,0,127,2187,834,-36
7,135,10,61,8,53,0,2.25110556304389,0,0,60,0,182,858,42
7,136,10,95,24,71,0,3.70839003988203,0,0,26,0,246,1275,26
7,137,10,60,41,19,0,4.35452739934317,0,0,0,148,1239,258,9
7,138,10,78,6,72,0,4.8384807968032,0,0,0,0,3338,1052,44
7,139,10,31,86,-55,0,4.0789650550887,0,0,0,286,1726,1970,-36
7,140,10,88,33,55,0,3.98237904279358,0,0,286,0,71,3581,17
7,141,1.5,91,36,55,0,0.501719036363284,0,0,0,9,29,128,14
7,142,1.5,69,48,21,0,0.668903760583817,0,0,0,142,287,7,2
7,143,1.5,1,68,-67,0,0.525348135934109,0,0,9,226,239,0,-18
7,144,1.5,78,24,54,0,0.524571426940383,0,0,4,230,238,0,26
7,145,1.5,78,48,30,0,0.715788245874137,0,0,0,236,329,0,2
7,146,1.5,42,66,-24,0,0.714230299851806,0,0,7,231,382,0,-16
7,147,1.5,63,39,24,0,0.721319391965153,0,0,0,228,425,0,11
7,148,1.5,35,51,-16,0,0.799771528368183,0,0,0,110,446,8,-1
7,149,1.5,8,75,-67,0,1.07419431706421,0,0,0,100,493,185,-25
7,150,1.5,87,35,52,0,1.01787400988178,0,0,103,0,129,554,15
7,151,1.5,91,12,79,0,1.05721358083611,0,0,7,229,772,0,38
7,152,1.5,94,34,60,0,1.34522439982175,0,0,0,239,1057,0,16
7,153,1.5,51,5,46,0,1.40612436193715,0,0,0,0,0,1022,45
7,154,1.5,59,13,46,0,0.97633321002013,0,0,0,0,176,229,37
7,155,1.5,33,69,-36,0,1.1721173072583,0,0,0,0,316,474,-19
7,156,1.5,3,73,-70,0,1.24773398793695,0,0,0,110,569,230,-23
7,157,1.5,5,82,-77,0,0.608678173863154,0,0,102,0,122,127,-32
7,158,1.5,54,32,22,0,0.371147100221606,0,0,183,0,0,0,18
7,159,1.5,67,35,32,0,0.407078569915029,0,0,0,196,69,5,15
7,160,1.5,81,25,56,0,0.937579868707871,0,0,116,0,224,314,25
8,1,10,25,55,-30,0,1.73184073027551,0,0,0,264,1170,209,-5
8,2,10,85,15,70,1,2.29325220945066,0,0,0,146,1127,724,-35
8,3,10,48,80,-32,0,2.61724430651702,0,0,0,117,1351,796,-30
8,4,10,85,15,70,1,3.09646439771313,0,0,0,267,841,1041,-35
8,5,10,28,85,-57,0,2.20420960214688,0,0,0,103,0,193,-35
8,6,10,53,40,13,1,1.76423942680594,0,0,0,268,0,209,-10
8,7,10,98,38,60,1,2.52353087983829,0,0,0,123,834,585,-12
8,8,10,30,100,-70,0,1.98288255573789,0,0,0,125,0,186,-50
8,9,10,28,85,-57,0,2.25566830872776,0,0,0,122,0,125,-35
8,10,10,100,15,85,1,2.92627003934467,0,0,0,0,0,1041,-35
8,11,10,3,100,-97,0,2.42283643015253,0,0,0,83,0,91,-50
8,12,10,50,100,-50,0,2.35743107288181,0,0,0,73,0,118,-50
8,13,10,53,40,13,1,2.31944991252749,0,0,0,0,330,360,-10
8,14,10,3,100,-97,0,2.16205178200289,0,0,0,140,0,199,-50
8,15,10,25,55,-30,0,2.40793919391399,0,0,0,0,0,0,-5
8,16,10,0,68,-68,0,2.43916814798285,0,0,0,0,989,0,-18
8,17,10,80,45,35,1,5.73309227924256,0,0,99,0,1392,2041,-5
8,18,10,75,0,75,1,3.16611131661193,0,0,202,0,224,234,-50
8,19,10,50,43,7,1,2.93446034965018,0,0,0,45,986,290,-7
8,20,10,48,100,-52,0,3.00763551367891,0,0,0,286,893,809,-50
8,21,1.5,80,45,35,1,1.24424830175485,0,0,0,268,424,174,-5
8,22,1.5,53,23,30,1,1.2105687749663,0,0,0,135,278,144,-27
8,23,1.5,50,100,-50,0,1.27422902741819,0,0,0,286,246,215,-50
8,24,1.5,75,0,75,0,1.25526682292912,0,0,120,131,281,339,50
8,25,1.5,48,60,-12,NaN,NaN,0,0,120,132,236,425,0
8,26,1.5,5,83,-78,0,0.977434423628438,0,0,116,0,381,0,-33
8,27,1.5,53,23,30,1,0.898519220147136,0,0,0,119,456,108,-27
8,28,1.5,5,83,-78,0,0.813613425922085,0,0,0,286,306,163,-33
8,29,1.5,53,0,53,1,1.0454201572993,0,0,0,22,574,138,-50
8,30,1.5,0,68,-68,0,1.01181066412028,0,0,0,84,488,191,-18
8,31,1.5,48,80,-32,1,1.42011266596455,0,0,0,101,404,612,30
8,32,1.5,30,100,-70,0,1.05847116259793,0,0,101,149,543,184,-50
8,33,1.5,100,0,100,1,1.27148866043535,0,0,0,150,329,35,-50
8,34,1.5,98,38,60,0,1.11514827896463,0,0,97,156,549,189,12
8,35,1.5,50,43,7,1,1.14950882226913,0,0,114,138,537,265,-7
8,36,1.5,53,0,53,0,1.11853343817711,0,0,76,181,382,100,50
8,37,1.5,100,0,100,0,1.04892847907286,0,0,0,133,572,120,50
8,38,1.5,100,15,85,0,1.38193136645168,0,0,125,127,711,69,35
8,39,1.5,48,60,-12,0,1.16552327575664,0,0,117,134,242,210,-10
8,40,1.5,48,100,-52,0,1.4779042827613,0,0,0,0,771,300,-50
8,41,10,51,2,49,0,2.56808825683584,0,0,0,26,1465,723,48
8,42,10,49,100,-51,0,2.33597995830678,0,0,0,119,883,654,-50
8,43,10,51,1,50,0,2.16128171412856,0,0,115,135,1214,612,49
8,44,10,33,86,-53,0,2.40197516764601,0,0,0,0,951,486,-36
8,45,10,92,47,45,1,2.14530197557724,0,0,0,143,1488,270,-3
8,46,10,51,18,33,0,2.13070087284905,0,0,114,139,233,738,32
8,47,10,4,92,-88,0,2.81273166650863,0,0,0,277,1295,1037,-42
8,48,10,36,99,-63,0,2.67590741917957,0,0,0,125,1106,1082,-49
8,49,10,49,98,-49,0,2.06307013714832,0,0,0,286,1428,282,-48
8,50,10,79,4,75,0,1.84314798916967,0,0,21,40,972,522,46
8,51,10,51,2,49,0,2.15058890962791,0,0,0,268,1111,706,48
8,52,10,51,1,50,0,2.65530727337682,0,0,136,116,1000,934,49
8,53,10,49,98,-49,0,2.29984291580877,0,0,0,132,830,1039,-48
8,54,10,16,62,-46,0,1.97383886170792,0,0,0,286,1167,420,-12
8,55,10,78,21,57,0,2.47791605565362,0,0,0,286,1378,674,29
8,56,10,15,79,-64,0,2.49786597558341,0,0,0,286,1529,622,-29
8,57,10,49,99,-50,0,2.12512565387988,0,0,0,251,1306,450,-49
8,58,10,61,25,36,1,3.23116982637475,0,0,57,114,1259,818,-25
8,59,10,0,54,-54,0,2.0761706489684,0,0,0,134,665,448,-4
8,60,10,55,40,15,1,2.33560594258779,0,0,32,69,462,605,-10
8,61,1.5,51,3,48,0,1.03992402801305,0,0,0,270,593,92,47
8,62,1.5,8,66,-58,0,1.04496161825409,0,0,0,272,531,154,-16
8,63,1.5,40,56,-16,0,1.28936262710158,0,0,109,145,231,218,-6
8,64,1.5,31,72,-41,0,1.36432878003689,0,0,0,286,822,185,-22
8,65,1.5,51,0,51,0,1.37191746538156,0,0,106,149,586,417,50
8,66,1.5,17,58,-41,0,1.41084860754745,0,0,0,96,0,301,-8
8,67,1.5,55,15,40,0,1.00847320021421,0,0,0,269,608,46,35
8,68,1.5,49,99,-50,0,1.08620507713022,0,0,111,143,397,305,-49
8,69,1.5,74,23,51,NaN,NaN,0,0,0,130,397,754,0
8,70,1.5,51,2,49,1,1.2357518962599,0,0,0,110,603,286,-48
8,71,1.5,15,61,-46,0,1.02271839936475,0,0,159,93,473,216,-11
8,72,1.5,51,3,48,1,1.291781201704,0,0,191,58,412,330,-47
8,73,1.5,85,2,83,0,1.17407914944852,0,0,150,100,507,275,48
8,74,1.5,64,23,41,1,0.91707571266852,0,0,114,137,443,140,-27
8,75,1.5,51,4,47,1,0.974146768108767,0,0,151,101,480,137,-46
8,76,1.5,49,96,-47,0,0.925212290290801,0,0,0,106,409,162,-46
8,77,1.5,76,34,42,1,1.26223456369553,0,0,16,237,401,476,-16
8,78,1.5,69,48,21,1,0.897952913859626,0,0,0,139,454,111,-2
8,79,1.5,71,46,25,1,0.931005760559856,0,0,120,130,410,176,-4
8,80,1.5,49,99,-50,0,1.03543583939427,0,0,117,132,354,286,-49
8,81,10,49,96,-47,0,3.66575646957608,0,0,0,72,1728,1526,-46
8,82,10,49,99,-50,0,2.63668980331204,0,0,0,161,742,1351,-49
8,83,10,49,98,-49,0,4.90387286725309,0,0,0,147,2089,2333,-48
8,84,10,36,58,-22,0,3.00769709495762,0,0,0,134,1757,861,-8
8,85,10,60,37,23,1,3.26813127317291,0,0,0,153,1642,1138,-13
8,86,10,21,56,-35,0,4.06186447227446,0,0,0,129,786,2785,-6
8,87,10,32,93,-61,0,2.38388325154665,0,0,0,135,1415,630,-43
8,88,10,9,72,-63,0,1.99718661934821,0,0,0,235,1078,540,-22
8,89,10,12,71,-59,0,2.01860483020027,0,0,0,104,864,796,-21
8,90,10,51,0,51,0,2.52319429587806,0,0,0,104,1647,513,50
8,91,10,85,16,69,0,2.85704332212481,0,0,0,115,1502,938,34
8,92,10,21,98,-77,0,2.25154870218466,0,0,0,107,1107,751,-48
8,93,10,41,82,-41,0,2.85419669724615,0,0,0,98,1032,1422,-32
8,94,10,48,74,-26,0,2.47259561413921,0,0,0,113,1274,833,-24
8,95,10,97,48,49,1,1.77793794115678,0,0,0,106,963,463,-2
8,96,10,51,1,50,0,2.04073696128944,0,0,0,106,1140,499,49
8,97,10,51,2,49,0,1.6368162864328,0,0,0,104,821,446,48
8,98,10,49,100,-51,0,1.64831357187541,0,0,0,108,909,382,-50
8,99,10,69,3,66,0,2.52765833497688,0,0,0,108,918,1225,47
8,100,10,51,0,51,0,1.38362545540258,0,0,0,151,419,572,50
8,101,1.5,36,56,-20,0,0.9926368494489,0,0,0,84,451,195,-6
8,102,1.5,49,100,-51,0,0.845703612310899,0,0,0,137,326,171,-50
8,103,1.5,57,5,52,1,1.2895035999336,0,0,0,143,839,108,-45
8,104,1.5,90,18,72,1,1.45908335297463,0,0,0,140,529,500,-32
8,105,1.5,36,51,-15,0,0.973354663796272,0,0,0,141,480,160,-1
8,106,1.5,49,98,-49,0,0.939046645700728,0,0,0,134,436,157,-48
8,107,1.5,51,2,49,0,1.02612016137391,0,0,0,138,541,151,48
8,108,1.5,65,9,56,1,1.18181424127033,0,0,0,150,765,78,-41
8,109,1.5,51,0,51,0,0.810832306622615,0,0,0,132,368,99,50
8,110,1.5,39,95,-56,0,0.943240210155636,0,0,0,206,429,183,-45
8,111,1.5,13,96,-83,0,0.899625570111311,0,0,0,286,451,104,-46
8,112,1.5,0,79,-79,0,0.996012952589808,0,0,0,124,445,196,-29
8,113,1.5,51,0,51,0,1.24838058679779,0,0,0,275,770,103,50
8,114,1.5,85,6,79,NaN,NaN,0,0,0,145,650,431,0
8,115,1.5,51,3,48,1,0.947214315830934,0,0,0,117,411,203,-47
8,116,1.5,49,96,-47,0,0.873616233304347,0,0,0,270,435,105,-46
8,117,1.5,92,0,92,0,0.952669390928349,0,0,0,281,590,0,50
8,118,1.5,78,31,47,1,0.990380680375893,0,0,0,137,416,205,-19
8,119,1.5,7,70,-63,0,0.842786953819086,0,0,0,131,315,181,-20
8,120,1.5,51,2,49,0,0.949195784092808,0,0,0,180,432,160,48
8,121,10,51,0,51,0,2.17714976114075,0,0,0,74,1245,543,50
8,122,10,49,96,-47,0,1.86987637798848,0,0,0,134,731,690,-46
8,123,10,25,61,-36,0,1.64661767170946,0,0,0,140,832,448,-11
8,124,10,96,12,84,1,2.63275403500302,0,0,0,156,724,874,-38
8,125,10,71,38,33,1,2.06665724673803,0,0,120,128,0,607,-12
8,126,10,52,14,38,1,1.79985966953973,0,0,0,101,1087,350,-36
8,127,10,13,81,-68,0,1.66664245515494,0,0,0,95,868,455,-31
8,128,10,2,80,-78,0,1.56345668043105,0,0,0,130,570,530,-30
8,129,10,49,99,-50,0,3.48828586029776,0,0,0,104,1298,1777,-49
8,130,10,51,3,48,0,2.91922592571427,0,0,0,108,1490,1012,47
8,131,10,49,100,-51,0,2.21896797863337,0,0,0,114,1160,639,-50
8,132,10,31,55,-24,0,3.56077910220665,0,0,0,99,1064,683,-5
8,133,10,51,1,50,0,2.89303999552794,0,0,0,117,828,1666,49
8,134,10,64,32,32,1,3.77211126529437,0,0,0,136,1661,1632,-18
8,135,10,79,31,48,1,2.96764722619446,0,0,0,110,1168,1214,-19
8,136,10,94,23,71,1,2.85938703321153,0,0,0,128,1191,1178,-27
8,137,10,26,85,-59,0,2.84389239817756,0,0,0,136,1146,1215,-35
8,138,10,56,32,24,1,2.04426430081367,0,0,0,104,481,587,-18
8,139,10,49,96,-47,0,2.70165594115497,0,0,0,128,1413,769,-46
8,140,10,49,98,-49,0,2.42014556968934,0,0,0,125,1059,971,-48
8,141,1.5,51,2,49,1,0.941742637936841,0,0,0,117,401,182,-48
8,142,1.5,49,98,-49,0,1.20346066510319,0,0,0,271,545,274,-48
8,143,1.5,56,5,51,1,0.766396280967456,0,0,0,138,339,96,-45
8,144,1.5,49,99,-50,0,0.826838005907121,0,0,0,159,384,110,-49
8,145,1.5,51,1,50,0,1.04460450720217,0,0,0,145,638,75,49
8,146,1.5,69,42,27,1,0.916936551051549,0,0,0,265,436,147,-8
8,147,1.5,10,81,-71,0,0.906660929540521,0,0,0,121,403,170,-31
8,148,1.5,28,76,-48,0,1.13708781761852,0,0,0,146,442,299,-26
8,149,1.5,8,51,-43,0,0.934044374136647,0,0,115,138,424,175,-1
8,150,1.5,38,66,-28,0,1.32311490432403,0,0,0,127,501,489,-16
8,151,1.5,16,53,-37,0,0.894698162064742,0,0,0,161,464,84,-3
8,152,1.5,93,48,45,1,1.26972997151461,0,0,125,127,721,214,-2
8,153,1.5,54,31,23,0,1.02935378233815,0,0,0,103,420,273,19
8,154,1.5,95,50,45,1,1.04705628739794,0,0,0,137,583,131,0
8,155,1.5,51,0,51,0,0.82406232025096,0,0,0,129,362,129,50
8,156,1.5,51,4,47,1,0.985794082456778,0,0,0,136,515,121,-46
8,157,1.5,51,3,48,1,1.0288303414527,0,0,0,140,432,215,-47
8,158,1.5,49,96,-47,0,0.998515144914563,0,0,0,276,483,179,-46
8,159,1.5,65,18,47,1,1.10487265745178,0,0,0,140,458,314,-32
8,160,1.5,16,66,-50,0,1.1351872502546,0,0,0,144,514,276,-16
9,1,10,5,83,-78,0,7.67158169759023,0,0,0,57,5668,1282,-33
9,2,10,98,38,60,0,6.89858685599029,0,0,0,109,3934,719,12
9,3,10,48,80,-32,1,8.14116018687673,0,0,0,64,3594,3390,30
9,4,10,50,100,-50,0,7.36593480881129,0,0,0,259,2235,811,-50
9,5,10,53,40,13,0,7.16638797992164,0,0,0,286,2715,2622,10
9,6,10,0,68,-68,0,2.71822946301108,0,0,0,82,0,2424,-18
9,7,10,48,100,-52,0,7.70538538864639,0,0,0,105,952,3285,-50
9,8,10,53,40,13,0,7.2917296996784,0,0,0,98,2573,3026,10
9,9,10,100,15,85,0,6.67150532382948,0,0,0,103,2239,3139,35
9,10,10,3,100,-97,0,4.73148408407542,0,0,0,112,1605,2139,-50
9,11,10,75,0,75,0,7.15006240914045,0,0,88,0,4700,954,50
9,12,10,25,55,-30,0,6.66252823716604,0,0,0,259,1973,2755,-5
9,13,10,53,0,53,NaN,NaN,0,0,0,106,4253,1262,0
9,14,10,48,80,-32,0,3.51308652030821,0,0,0,0,522,1886,-30
9,15,10,30,100,-70,0,4.62069896180583,0,0,22,0,2495,1222,-50
9,16,10,100,0,100,0,1.45132339126576,0,0,0,105,904,124,50
9,17,10,100,15,85,0,1.66208388073392,0,0,0,103,855,392,35
9,18,10,28,85,-57,1,4.50027927439987,0,0,0,98,2435,638,35
9,19,10,53,23,30,0,4.14362195773356,0,0,0,117,1467,1175,27
9,20,10,85,15,70,0,3.05772260687991,0,0,0,109,1458,880,35
9,21,1.5,48,60,-12,0,1.25886483233262,0,0,0,38,541,331,-10
9,22,1.5,50,43,7,0,1.37714726190097,0,0,0,201,585,361,7
9,23,1.5,80,45,35,NaN,NaN,0,0,0,256,318,682,0
9,24,1.5,48,100,-52,0,0.680656590970102,0,0,0,110,252,84,-50
9,25,1.5,53,0,53,0,0.638494652030204,0,0,101,0,100,207,50
9,26,1.5,50,43,7,0,0.493034332575917,0,0,114,0,30,130,7
9,27,1.5,80,45,35,0,0.826252451210166,0,0,123,0,66,427,5
9,28,1.5,50,100,-50,0,0.906076616473001,0,0,132,0,63,506,-50
9,29,1.5,85,15,70,0,0.830507647040577,0,0,114,0,61,434,35
9,30,1.5,5,83,-78,0,0.717597039962129,0,0,0,112,334,51,-33
9,31,1.5,25,55,-30,0,0.760781421317006,0,0,107,0,58,358,-5
9,32,1.5,28,85,-57,0,1.0105773554551,0,0,59,0,328,299,-35
9,33,1.5,30,100,-70,0,0.994305819865986,0,0,0,110,443,166,-50
9,34,1.5,48,60,-12,0,0.874730771929535,0,0,0,107,292,197,-10
9,35,1.5,98,38,60,0,0.823771360508545,0,0,0,258,448,27,12
9,36,1.5,0,68,-68,0,0.886955101894273,0,0,0,115,0,601,-18
9,37,1.5,3,100,-97,0,0.747392768827922,0,0,59,0,165,245,-50
9,38,1.5,53,23,30,0,1.14987615376231,0,0,87,0,120,687,27
9,39,1.5,75,0,75,0,0.799582009123696,0,0,0,79,0,513,50
9,40,1.5,100,0,100,0,0.727350241020758,0,0,82,0,122,269,50
9,41,10,54,44,10,0,3.17989345709793,0,0,60,0,760,1686,6
9,42,10,81,50,31,0,4.39495442328371,0,0,0,108,1265,1922,0
9,43,10,84,24,60,0,4.00895539410521,0,0,263,0,724,2414,26
9,44,10,48,57,-9,1,1.36706924595092,0,0,0,105,589,348,7
9,45,10,63,49,14,0,2.40321154385492,0,0,64,0,1452,533,1
9,46,10,91,48,43,0,3.60981766293116,0,0,61,0,178,3077,2
9,47,10,98,12,86,0,4.05676627455796,0,0,103,0,106,3523,38
9,48,10,18,53,-35,1,3.46885343362374,0,0,0,258,1572,1423,3
9,49,10,47,70,-23,1,2.96844892437184,0,0,14,213,1915,630,20
9,50,10,20,56,-36,0,2.7035813981347,0,0,69,0,781,1455,-6
9,51,10,13,84,-71,0,4.09472010978971,0,0,0,108,384,2624,-34
9,52,10,75,43,32,0,3.50488313305505,0,0,0,93,1176,1831,7
9,53,10,25,93,-68,1,3.62645627557504,0,0,78,0,1382,1422,43
9,54,10,95,24,71,0,3.71941159601738,0,0,0,110,681,2134,26
9,55,10,79,40,39,0,2.96024251839481,0,0,0,257,854,1285,10
9,56,10,79,47,32,0,3.36729474476488,0,0,0,244,1039,1566,3
9,57,10,82,20,62,0,3.75833263098139,0,0,0,44,366,2956,30
9,58,10,41,81,-40,0,2.91786534430867,0,0,0,180,380,1823,-31
9,59,10,90,42,48,0,3.39099294946755,0,0,0,236,2058,574,8
9,60,10,86,24,62,0,4.27797155515509,0,0,0,269,722,3130,26
9,61,1.5,98,49,49,0,1.00643596558621,0,0,0,115,398,214,1
9,62,1.5,54,49,5,NaN,NaN,0,0,97,0,502,552,0
9,63,1.5,74,30,44,0,0.6647675279346,0,0,106,0,60,272,20
9,64,1.5,82,11,71,0,0.541226779967474,0,0,135,0,59,148,39
9,65,1.5,74,34,40,0,0.550399480058331,0,0,113,0,18,199,16
9,66,1.5,10,92,-82,0,0.534970772701854,0,0,139,0,4,194,-42
9,67,1.5,36,80,-44,0,0.656142424693826,0,0,261,0,37,285,-30
9,68,1.5,52,29,23,1,0.885336159268263,0,0,88,154,121,420,-21
9,69,1.5,86,3,83,0,0.512361422379399,0,0,95,0,156,27,47
9,70,1.5,63,36,27,0,0.826954908694461,0,0,0,0,0,0,14
9,71,1.5,78,44,34,0,0.639406307209356,0,0,0,0,0,0,6
9,72,1.5,69,10,59,0,0.700578369747745,0,0,0,0,0,0,40
9,73,1.5,84,48,36,0,0.735063990952767,0,0,0,0,0,0,2
9,74,1.5,17,76,-59,NaN,NaN,0,0,0,0,0,0,0
9,75,1.5,12,97,-85,NaN,NaN,0,0,0,0,0,0,0
9,76,1.5,57,50,7,0,1.03723028893364,0,0,0,0,0,0,0
9,77,1.5,86,41,45,NaN,NaN,0,0,0,0,0,0,0
9,78,1.5,84,29,55,NaN,NaN,0,0,0,0,0,0,0
9,79,1.5,1,53,-52,0,0.612680924314191,0,0,0,0,0,0,-3
9,80,1.5,10,95,-85,NaN,NaN,0,0,0,286,356,669,0
9,81,10,93,20,73,0,5.63189390628577,0,0,91,0,1583,3098,30
9,82,10,98,29,69,0,4.1381378386468,0,0,0,108,2148,1269,21
9,83,10,22,92,-70,0,4.6962247634583,0,0,0,86,1149,2965,-42
9,84,10,89,29,60,0,4.54543035558709,0,0,0,104,1852,2124,21
9,85,10,40,75,-35,1,2.90345455127863,0,0,10,56,1116,1374,25
9,86,10,46,53,-7,1,2.8311590880603,0,0,121,0,1092,976,3
9,87,10,23,54,-31,0,3.28291109611564,0,0,121,0,569,2255,-4
9,88,10,56,45,11,1,3.45995664506518,0,0,82,0,1830,1136,-5
9,89,10,26,95,-69,0,4.08624564096499,0,0,263,0,594,2931,-45
9,90,10,77,48,29,0,4.69496172859908,0,0,220,0,1011,3059,2
9,91,10,29,98,-69,0,4.07020020793425,0,0,0,261,1740,1808,-48
9,92,10,39,68,-29,0,3.72032204370589,0,0,0,122,1494,1601,-18
9,93,10,76,18,58,0,4.68784598823913,0,0,0,255,1464,2796,32
9,94,10,0,75,-75,0,3.68036800078698,0,0,0,263,963,2232,-25
9,95,10,100,45,55,0,3.60999878647817,0,0,0,260,1490,1564,5
9,96,10,0,52,-52,0,3.77419331799501,0,0,0,262,1034,2245,-2
9,97,10,91,23,68,0,4.90770431340025,0,0,0,262,767,3464,27
9,98,10,40,69,-29,1,4.09157520129338,0,0,0,250,1544,2001,19
9,99,10,85,15,70,0,4.01228867109057,0,0,0,239,782,2823,35
9,100,10,81,36,45,0,3.87241329616336,0,0,0,265,910,2438,14
9,101,1.5,13,50,-37,0,1.48438990949217,0,0,90,0,86,1043,0
9,102,1.5,85,28,57,0,0.7252730558248,0,0,90,141,139,246,22
9,103,1.5,91,35,56,0,0.901076097250552,0,0,119,0,28,541,15
9,104,1.5,65,25,40,0,1.2621570546471,0,0,0,265,511,329,25
9,105,1.5,14,55,-41,0,1.12911637671277,0,0,86,137,534,241,-5
9,106,1.5,23,90,-67,0,0.777470748551423,0,0,0,229,231,178,-40
9,107,1.5,85,26,59,0,0.639940923541872,0,0,180,59,0,354,24
9,108,1.5,55,48,7,1,1.17173565260418,0,0,81,157,102,739,-2
9,109,1.5,80,49,31,0,0.585407944567123,0,0,106,0,33,220,1
9,110,1.5,31,89,-58,0,0.701891213580893,0,0,13,189,188,153,-39
9,111,1.5,2,54,-52,0,0.460383794759764,0,0,179,62,7,125,-4
9,112,1.5,70,44,26,NaN,NaN,0,0,31,187,517,603,0
9,113,1.5,71,32,39,0,0.951416368017817,0,0,0,100,0,666,18
9,114,1.5,75,11,64,0,0.781841561580222,0,0,0,266,311,94,39
9,115,1.5,9,89,-80,0,1.35358520172849,0,0,0,258,265,691,-39
9,116,1.5,88,43,45,0,1.16717496172896,0,0,0,214,354,368,7
9,117,1.5,20,56,-36,NaN,NaN,0,0,57,184,409,420,0
9,118,1.5,1,89,-88,0,0.709988945431178,0,0,0,94,0,424,-39
9,119,1.5,98,47,51,0,0.86181304065758,0,0,0,110,63,465,3
9,120,1.5,98,22,76,0,0.671562981491661,0,0,101,0,107,209,28
9,121,10,96,45,51,0,3.51772418869223,0,0,96,0,1098,1790,5
9,122,10,5,76,-71,0,5.7959486708005,0,0,80,0,2859,2159,-26
9,123,10,100,11,89,0,4.94288786400284,0,0,6,228,2031,2541,39
9,124,10,53,19,34,0,4.55533177607867,0,0,96,0,571,3237,31
9,125,10,59,19,40,0,6.19991938191561,0,0,0,105,1683,2998,31
9,126,10,93,39,54,0,4.13869509542019,0,0,0,253,1308,2058,11
9,127,10,79,30,49,0,4.4640690551696,0,0,0,206,1382,2239,20
9,128,10,90,24,66,0,3.48801841785462,0,0,0,116,545,2490,26
9,129,10,100,5,95,0,2.49562198429885,0,0,0,96,526,1269,45
9,130,10,88,43,45,0,5.26286705894563,0,0,0,261,845,3839,7
9,131,10,77,46,31,0,4.74854048836278,0,0,0,258,1365,2888,4
9,132,10,95,43,52,0,4.36902326713607,0,0,0,113,1662,2289,7
9,133,10,88,50,38,0,4.04437802778739,0,0,0,265,1084,1714,0
9,134,10,31,75,-44,0,4.70112777783652,0,0,0,118,1254,2879,-25
9,135,10,27,60,-33,0,4.12300285330457,0,0,0,179,1463,1792,-10
9,136,10,15,75,-60,0,4.39239394009383,0,0,0,261,881,2925,-25
9,137,10,4,56,-52,0,4.25103667269286,0,0,0,265,1271,2026,-6
9,138,10,4,69,-65,0,4.72305368864727,0,0,76,0,1793,2124,-19
9,139,10,72,49,23,0,3.84825443390946,0,0,0,0,1018,2062,1
9,140,10,84,33,51,0,6.07301607532281,0,0,99,0,3161,2172,17
9,141,1.5,30,50,-20,0,0.815210556127568,0,0,102,0,55,428,0
9,142,1.5,45,87,-42,0,0.945643055003529,0,0,104,0,60,551,-37
9,143,1.5,86,31,55,0,0.599435359426934,0,0,88,146,82,182,19
9,144,1.5,64,24,40,0,0.474605313687789,0,0,79,0,82,53,26
9,145,1.5,17,77,-60,0,0.427093287084062,0,0,229,0,0,129,-27
9,146,1.5,1,54,-53,0,0.300941945077284,0,0,263,0,15,0,-4
9,147,1.5,89,15,74,0,0.307517031655152,0,0,124,0,22,0,35
9,148,1.5,25,73,-48,0,0.282103888848724,0,0,112,0,0,0,-23
9,149,1.5,96,23,73,0,0.345295780791275,0,0,99,0,60,0,27
9,150,1.5,5,99,-94,0,0.206553333644479,0,0,11,0,0,0,-49
9,151,1.5,2,89,-87,0,0.317166992290367,0,0,114,0,23,0,-39
9,152,1.5,5,90,-85,0,0.283758452436814,0,0,169,69,0,0,-40
9,153,1.5,21,62,-41,0,0.347643141942171,0,0,0,106,0,45,-12
9,154,1.5,77,46,31,0,0.385578261075352,0,0,29,195,100,0,4
9,155,1.5,83,13,70,0,0.381431135625462,0,0,67,163,95,0,37
9,156,1.5,31,69,-38,0,0.440668496823491,0,0,1,225,154,0,-19
9,157,1.5,62,22,40,0,0.449877119755911,0,0,11,208,164,0,28
9,158,1.5,97,22,75,0,0.338421538492184,0,0,0,258,0,16,28
9,159,1.5,5,82,-77,0,0.383664087070429,0,0,76,145,97,0,-32
9,160,1.5,91,37,54,0,0.698798529039777,0,0,119,0,28,320,13
10,1,10,100,0,100,0,1.37952662127645,0,0,116,0,334,557,50
10,2,10,85,15,70,1,7.82224207377112,0,0,247,0,2398,2183,-35
10,3,10,53,40,13,1,5.10647985759169,0,0,258,0,2308,1678,-10
10,4,10,98,38,60,0,6.16486231565614,0,0,267,0,2752,2308,12
10,5,10,0,68,-68,0,6.14037924225522,0,0,262,0,574,3560,-18
10,6,10,50,43,7,1,5.06046843956392,0,0,260,0,2074,1842,-7
10,7,10,100,15,85,0,7.26510091573982,0,0,261,0,4228,2271,35
10,8,10,75,0,75,0,6.7641222448492,0,0,263,0,3048,2228,50
10,9,10,48,80,-32,0,6.74800949423479,0,0,170,0,3084,2466,-30
10,10,10,53,40,13,1,4.8760728971356,0,0,264,0,2944,651,-10
10,11,10,25,55,-30,0,5.13587107720559,0,0,251,0,2042,1671,-5
10,12,10,50,100,-50,0,8.00824055957855,0,0,126,0,4430,2222,-50
10,13,10,50,43,7,1,4.48567679201551,0,0,160,0,2131,1463,-7
10,14,10,80,45,35,1,5.87247517977448,0,0,262,0,2171,2019,-5
10,15,10,3,100,-97,0,5.16402884547279,0,0,118,0,2252,2077,-50
10,16,10,28,85,-57,0,5.45184593242811,0,0,261,0,2655,1726,-35
10,17,10,48,100,-52,0,5.19139963193629,0,0,225,14,2261,1994,-50
10,18,10,48,60,-12,1,4.68588834431648,0,0,213,22,2706,1106,10
10,19,10,75,0,75,0,5.6964055848639,0,0,264,0,1697,2609,50
10,20,10,53,0,53,0,4.61932876191531,0,0,260,0,1806,1908,50
10,21,1.5,48,60,-12,1,0.747833502522553,0,0,190,31,19,385,10
10,22,1.5,0,68,-68,0,0.582328844024232,0,0,171,65,0,251,-18
10,23,1.5,53,0,53,1,0.590861876129566,0,0,170,68,0,305,-50
10,24,1.5,30,100,-70,0,0.622723017158933,0,0,263,0,23,267,-50
10,25,1.5,98,38,60,0,0.925907833210658,0,0,161,52,240,287,12
10,26,1.5,80,45,35,1,1.08030478840374,0,0,174,65,154,497,-5
10,27,1.5,53,23,30,1,0.893339706608458,0,0,204,29,238,292,-27
10,28,1.5,48,100,-52,0,0.617151053151247,0,0,172,65,91,193,-50
10,29,1.5,25,55,-30,0,0.655648560890768,0,0,154,64,0,348,-5
10,30,1.5,50,100,-50,0,0.741509875801057,0,0,176,65,202,195,-50
10,31,1.5,5,83,-78,0,0.703351974707402,0,0,199,40,0,411,-33
10,32,1.5,48,80,-32,1,0.65046420127328,0,0,167,64,0,364,30
10,33,1.5,53,23,30,1,1.00694884682525,0,0,210,26,267,405,-27
10,34,1.5,100,15,85,0,0.806668769449971,0,0,168,70,0,500,35
10,35,1.5,5,83,-78,0,0.541832034214167,0,0,153,23,0,256,-33
10,36,1.5,100,0,100,0,0.567655723723874,0,0,167,71,0,281,50
10,37,1.5,3,100,-97,0,0.520246031925126,0,0,189,50,0,226,-50
10,38,1.5,85,15,70,0,0.626785618287613,0,0,168,69,0,341,35
10,39,1.5,30,100,-70,0,0.720695459815033,0,0,267,0,74,311,-50
10,40,1.5,28,85,-57,0,0.523814769516321,0,0,177,60,0,238,-35
10,41,10,99,27,72,0,2.97749544146245,0,0,121,0,1384,806,23
10,42,10,90,40,50,1,2.32997786040323,0,0,240,0,716,1129,-10
10,43,10,45,85,-40,0,1.50065570923471,0,0,226,13,270,705,-35
10,44,10,89,18,71,0,1.75768118969609,0,0,273,0,691,664,32
10,45,10,98,14,84,0,1.43491540900322,0,0,273,0,346,648,36
10,46,10,16,52,-36,0,3.02895505574088,0,0,265,0,688,1247,-2
10,47,10,15,51,-36,0,3.01875206454679,0,0,134,0,821,1684,-1
10,48,10,42,58,-16,0,3.04783416664213,0,0,127,0,984,1478,-8
10,49,10,11,81,-70,0,3.04423463804596,0,0,207,0,1146,1381,-31
10,50,10,62,10,52,0,2.46467008319814,0,0,253,0,908,968,40
10,51,10,10,91,-81,0,3.0425746407509,0,0,135,0,661,1788,-41
10,52,10,69,16,53,0,3.23171562007337,0,0,171,0,1232,1195,34
10,53,10,79,25,54,1,3.18138983919016,0,0,266,0,1277,1204,-25
10,54,10,49,67,-18,0,2.62045595411473,0,0,280,0,1256,759,-17
10,55,10,46,55,-9,0,2.80174854833422,0,0,264,0,912,1364,-5
10,56,10,94,7,87,0,2.99147606607221,0,0,269,0,1102,1322,43
10,57,10,77,11,66,0,3.29393850105043,0,0,264,0,1452,1075,39
10,58,10,69,47,22,1,2.74424363384969,0,0,153,66,1055,1007,-3
10,59,10,45,57,-12,0,3.2327881733363,0,0,0,83,2175,550,-7
10,60,10,3,79,-76,0,3.50913108367786,0,0,223,12,909,1982,-29
10,61,1.5,91,14,77,0,0.870589381793252,0,0,179,60,175,353,36
10,62,1.5,98,13,85,0,0.625699480757248,0,0,180,58,0,339,37
10,63,1.5,68,32,36,1,0.543514671951925,0,0,204,33,0,257,-18
10,64,1.5,8,83,-75,0,0.512016381759167,0,0,209,28,0,226,-33
10,65,1.5,11,55,-44,0,0.59391018540191,0,0,158,72,0,308,-5
10,66,1.5,96,29,67,0,0.641097397112389,0,0,190,50,0,355,21
10,67,1.5,100,11,89,0,0.789591234082764,0,0,188,50,35,421,39
10,68,1.5,100,33,67,0,0.43606946786349,0,0,169,69,0,150,17
10,69,1.5,24,99,-75,0,0.560634771352852,0,0,179,55,0,266,-49
10,70,1.5,43,93,-50,1,0.520490548711678,0,0,195,40,0,234,43
10,71,1.5,21,79,-58,0,0.392366167548971,0,0,201,40,0,106,-29
10,72,1.5,84,41,43,1,0.780290841888927,0,0,184,57,0,494,-9
10,73,1.5,79,36,43,1,0.619328460043107,0,0,196,41,0,333,-14
10,74,1.5,16,50,-34,0,0.544567905370059,0,0,203,36,0,259,0
10,75,1.5,39,55,-16,0,0.769030089188163,0,0,246,0,29,406,-5
10,76,1.5,100,17,83,0,0.734939921057958,0,0,231,5,0,449,33
10,77,1.5,99,7,92,0,0.508677972940859,0,0,211,0,31,142,43
10,78,1.5,30,80,-50,0,0.579865261932355,0,0,194,46,0,294,-30
10,79,1.5,80,28,52,1,0.743710526880022,0,0,204,29,0,458,-22
10,80,1.5,89,12,77,0,0.62409623550775,0,0,216,20,0,338,38
10,81,10,71,20,51,0,3.5558180925309,0,0,210,29,1221,1145,30
10,82,10,52,5,47,0,2.45871806161813,0,0,124,0,935,1001,45
10,83,10,87,20,67,0,3.53330020959947,0,0,248,0,1140,990,30
10,84,10,48,57,-9,0,3.13165150233908,0,0,107,0,1088,1397,-7
10,85,10,89,35,54,0,2.91528010729962,0,0,133,0,1443,927,15
10,86,10,89,14,75,0,2.64442886286088,0,0,286,0,645,1537,36
10,87,10,65,28,37,1,2.24033166713707,0,0,286,0,912,850,-22
10,88,10,5,63,-58,0,2.23630106450219,0,0,263,0,242,1513,-13
10,89,10,99,11,88,0,2.44829017535449,0,0,248,0,396,1347,39
10,90,10,75,45,30,0,2.78749986087678,0,0,110,0,1349,929,5
10,91,10,53,18,35,0,2.81540707490603,0,0,267,0,845,1441,32
10,92,10,94,21,73,0,2.72250609152616,0,0,261,0,989,1244,29
10,93,10,19,91,-72,0,2.51435378111455,0,0,227,12,1133,912,-41
10,94,10,26,53,-27,0,2.51494424387238,0,0,236,3,917,1117,-3
10,95,10,100,1,99,0,2.25151242360516,0,0,270,0,854,937,49
10,96,10,34,55,-21,0,2.82218139738325,0,0,202,37,1333,845,-5
10,97,10,84,17,67,0,3.06663811127146,0,0,90,144,1234,1272,33
10,98,10,51,8,43,0,2.7404267569982,0,0,266,0,844,1154,42
10,99,10,29,99,-70,0,3.40422492982361,0,0,238,3,1383,1506,-49
10,100,10,31,67,-36,0,3.2478416530812,0,0,244,0,1360,1349,-17
10,101,1.5,18,61,-43,0,0.630540007514355,0,0,167,50,0,344,-11
10,102,1.5,16,76,-60,0,0.483059858654087,0,0,186,50,0,176,-26
10,103,1.5,38,85,-47,0,0.580265544967915,0,0,166,75,0,283,-35
10,104,1.5,29,58,-29,0,0.642123763871496,0,0,258,0,5,276,-8
10,105,1.5,88,18,70,0,0.837318797704938,0,0,182,57,0,551,32
10,106,1.5,97,13,84,0,0.568402254604734,0,0,185,54,0,282,37
10,107,1.5,89,17,72,0,0.55016492480172,0,0,192,47,0,264,33
10,108,1.5,15,52,-37,0,0.788718822337614,0,0,199,42,3,440,-2
10,109,1.5,97,18,79,0,0.673871702685574,0,0,269,0,2,335,32
10,110,1.5,42,84,-42,0,1.05096247214715,0,0,207,35,213,506,-34
10,111,1.5,88,29,59,0,0.483308299784767,0,0,191,46,0,198,21
10,112,1.5,100,23,77,0,0.459843140710291,0,0,174,66,0,174,27
10,113,1.5,67,5,62,0,0.653734688761688,0,0,189,47,2,317,45
10,114,1.5,89,49,40,0,0.696200613383553,0,0,201,39,0,391,1
10,115,1.5,87,14,73,0,0.584596208942457,0,0,266,0,83,167,36
10,116,1.5,99,8,91,0,0.525160215587675,0,0,230,8,0,240,42
10,117,1.5,84,21,63,0,0.468326363839878,0,0,266,0,31,107,29
10,118,1.5,94,25,69,0,0.581601934862192,0,0,159,80,0,277,25
10,119,1.5,89,37,52,0,0.578066705124002,0,0,167,71,0,292,13
10,120,1.5,0,55,-55,0,0.559276042889906,0,0,167,72,0,256,-5
10,121,10,36,65,-29,0,2.83799861474654,0,0,0,208,1308,587,-15
10,122,10,75,12,63,0,2.95110151465451,0,0,266,0,1400,985,38
10,123,10,8,60,-52,0,2.9882571987946,0,0,216,0,1093,1129,-10
10,124,10,100,3,97,0,3.14399658133334,0,0,249,0,1101,1508,47
10,125,10,0,81,-81,0,3.39835924379986,0,0,113,0,1485,1488,-31
10,126,10,56,33,23,1,2.22662785967805,0,0,189,0,809,753,-17
10,127,10,59,3,56,0,2.22798568252438,0,0,277,0,524,1250,47
10,128,10,72,33,39,0,3.02993734910342,0,0,233,0,1088,1394,17
10,129,10,93,19,74,0,3.02431889671971,0,0,110,0,1388,999,31
10,130,10,94,20,74,0,4.48275889169599,0,0,122,0,1892,1998,30
10,131,10,72,33,39,0,5.67932472889697,0,0,207,0,3736,1071,17
10,132,10,33,96,-63,0,2.38224951191114,0,0,47,0,835,525,-46
10,133,10,99,7,92,0,4.08152707046247,0,0,286,0,1828,782,43
10,134,10,67,3,64,0,1.36096266534332,0,0,110,0,488,26,47
10,135,10,73,32,41,0,1.80237100958584,0,0,228,0,519,657,18
10,136,10,95,16,79,0,1.77313676371159,0,0,95,144,283,1071,34
10,137,10,19,83,-64,0,2.8012009514805,0,0,265,0,564,1366,-33
10,138,10,4,82,-78,0,2.70772852331538,0,0,271,0,492,1646,-32
10,139,10,32,93,-61,0,3.45825317785238,0,0,115,0,1367,908,-43
10,140,10,97,32,65,0,2.55447868391275,0,0,269,0,767,1114,18
10,141,1.5,11,90,-79,0,0.615131223747085,0,0,191,46,0,330,-40
10,142,1.5,100,32,68,0,0.504891283348115,0,0,157,64,0,199,18
10,143,1.5,84,21,63,0,0.600036387459113,0,0,173,16,0,314,29
10,144,1.5,90,22,68,0,0.491214342549938,0,0,196,43,0,163,28
10,145,1.5,60,0,60,0,0.763189458588386,0,0,263,0,17,398,50
10,146,1.5,96,40,56,0,0.440203009045945,0,0,207,31,0,154,10
10,147,1.5,47,84,-37,0,0.457424537631596,0,0,219,19,0,171,-34
10,148,1.5,23,58,-35,0,0.585906335922118,0,0,286,0,7,248,-8
10,149,1.5,89,26,63,0,0.70110785397992,0,0,188,51,0,260,24
10,150,1.5,4,57,-53,0,0.523533122403023,0,0,208,28,0,237,-7
10,151,1.5,69,19,50,0,0.686118673093006,0,0,145,40,0,338,31
10,152,1.5,97,33,64,0,0.893170959838244,0,0,268,0,64,440,17
10,153,1.5,88,15,73,0,0.764201939207851,0,0,271,0,60,361,35
10,154,1.5,27,97,-70,0,0.624691528228141,0,0,204,33,0,289,-47
10,155,1.5,19,84,-65,0,0.466519958345089,0,0,183,37,0,108,-34
10,156,1.5,24,96,-72,0,0.666321567687191,0,0,166,41,0,380,-46
10,157,1.5,71,27,44,1,0.754095245365534,0,0,180,38,71,348,-23
10,158,1.5,37,60,-23,0,0.526543697604211,0,0,197,43,0,241,-10
10,159,1.5,70,4,66,0,1.2443830989796,0,0,271,0,470,128,46
10,160,1.5,90,23,67,0,1.01333345180865,0,0,272,0,306,254,27
11,1,10,50,100,-50,0,3.09237788056862,0,0,0,0,1550,875,-50
11,2,10,53,23,30,1,2.32810413768675,0,0,0,0,1037,446,-27
11,3,10,28,85,-57,0,1.24278468405191,0,0,48,0,956,0,-35
11,4,10,50,100,-50,0,1.03831491719438,0,0,0,0,0,0,-50
11,5,10,48,100,-52,0,2.56982286731045,0,0,0,0,1241,253,-50
11,6,10,30,100,-70,0,2.42713071937851,0,0,95,0,695,777,-50
11,7,10,28,85,-57,0,1.44243052714592,0,0,0,0,538,423,-35
11,8,10,0,68,-68,0,4.19046986476496,0,0,37,0,1379,714,-18
11,9,10,100,0,100,1,4.73461510652851,0,0,45,0,2162,1337,-50
11,10,10,53,0,53,1,3.87251049922861,0,0,0,0,2165,342,-50
11,11,10,25,55,-30,0,3.30137573606589,0,0,0,0,739,697,-5
11,12,10,53,40,13,1,3.53776098101753,0,0,0,0,1811,644,-10
11,13,10,85,15,70,1,3.68406231746758,0,0,0,0,1840,393,-35
11,14,10,75,0,75,1,3.20023242387151,0,0,0,0,1692,471,-50
11,15,10,48,60,-12,0,3.2078930442317,0,0,0,0,947,1410,-10
11,16,10,25,55,-30,0,3.59172221333347,0,0,0,0,1195,940,-5
11,17,10,5,83,-78,0,3.43200807458834,0,0,0,0,1344,1029,-33
11,18,10,3,100,-97,0,3.08691579817923,0,0,0,0,1042,543,-50
11,19,10,53,40,13,1,3.09862664289085,0,0,31,0,1760,883,-10
11,20,10,53,0,53,1,3.45441849088274,0,0,26,0,1907,584,-50
11,21,1.5,0,68,-68,0,1.24774867669112,0,0,1,0,720,0,-18
11,22,1.5,48,60,-12,0,0.934073788625483,0,0,268,0,138,170,-10
11,23,1.5,53,23,30,1,0.873142620402632,0,0,276,0,149,320,-27
11,24,1.5,48,100,-52,0,0.614909649638321,0,0,131,0,329,0,-50
11,25,1.5,85,15,70,NaN,NaN,0,0,125,0,471,355,0
11,26,1.5,48,80,-32,0,0.851323572484944,0,0,130,0,86,344,-30
11,27,1.5,5,83,-78,0,0.945861007099211,0,0,108,0,523,64,-33
11,28,1.5,3,100,-97,0,1.00421931535675,0,0,266,0,153,211,-50
11,29,1.5,30,100,-70,0,0.787924897826088,0,0,184,33,81,365,-50
11,30,1.5,80,45,35,1,1.34839269164468,0,0,56,0,450,229,-5
11,31,1.5,80,45,35,1,0.846013633873554,0,0,137,0,277,239,-5
11,32,1.5,98,38,60,1,0.780518756047513,0,0,125,0,223,0,-12
11,33,1.5,100,0,100,1,0.62896574239312,0,0,126,0,343,0,-50
11,34,1.5,100,15,85,1,0.955456328798846,0,0,0,83,573,52,-35
11,35,1.5,100,15,85,1,0.691939984209966,0,0,91,0,153,150,-35
11,36,1.5,50,43,7,1,0.791705549967446,0,0,241,0,166,233,-7
11,37,1.5,48,80,-32,0,0.759531970821172,0,0,90,0,118,88,-30
11,38,1.5,50,43,7,1,0.608631001931371,0,0,142,0,254,0,-7
11,39,1.5,98,38,60,1,0.567850130026272,0,0,124,0,282,0,-12
11,40,1.5,75,0,75,1,0.600372673870424,0,0,123,0,315,0,-50
11,41,10,26,75,-49,0,1.45338910539886,0,0,66,0,511,272,-25
11,42,10,51,0,51,1,2.9623079306557,0,0,100,0,2009,169,-50
11,43,10,37,53,-16,0,1.95543519771854,0,0,0,0,737,326,-3
11,44,10,58,10,48,1,4.85288727242823,0,0,0,0,2483,752,-40
11,45,10,11,97,-86,0,3.16139440386542,0,0,94,0,773,1502,-47
11,46,10,51,1,50,1,1.39449829391742,0,0,109,0,885,0,-49
11,47,10,95,2,93,1,1.61807719857825,0,0,86,0,1245,0,-48
11,48,10,49,100,-51,0,0.736971825728688,0,0,82,0,451,0,-50
11,49,10,2,92,-90,0,3.04727902333798,0,0,119,0,1679,740,-42
11,50,10,49,97,-48,0,3.2690575599554,0,0,0,0,2884,0,-47
11,51,10,17,87,-70,0,3.21471838317484,0,0,87,0,956,364,-37
11,52,10,49,99,-50,0,2.3083994052904,0,0,27,0,508,732,-49
11,53,10,69,44,25,1,2.68573046532219,0,0,113,0,627,501,-6
11,54,10,49,96,-47,0,1.58359248299075,0,0,114,0,235,270,-46
11,55,10,51,0,51,1,3.69832609855439,0,0,91,0,3084,0,-50
11,56,10,80,25,55,1,5.62917946817743,0,0,50,0,2669,1219,-25
11,57,10,67,13,54,1,4.37820291039407,0,0,91,0,2055,212,-37
11,58,10,51,2,49,1,4.12151552721843,0,0,222,7,1643,107,-48
11,59,10,24,70,-46,0,6.18691320207472,0,0,98,0,2895,1051,-20
11,60,10,12,98,-86,0,4.77701944914679,0,0,112,0,2473,740,-48
11,61,1.5,51,2,49,1,0.807410470732066,0,0,125,0,499,0,-48
11,62,1.5,51,3,48,1,0.534590715225022,0,0,264,0,0,214,-47
11,63,1.5,42,63,-21,0,0.791766528227527,0,0,242,0,0,427,-13
11,64,1.5,51,0,51,1,0.567546748087807,0,0,172,0,281,0,-50
11,65,1.5,66,14,52,1,0.543428336758552,0,0,261,0,257,0,-36
11,66,1.5,91,3,88,1,0.448627367384688,0,0,267,0,162,0,-47
11,67,1.5,54,27,27,1,0.749182873299105,0,0,105,0,194,220,-23
11,68,1.5,51,1,50,1,0.725679376407243,0,0,118,0,134,0,-49
11,69,1.5,50,79,-29,0,1.08750626093843,0,0,271,0,63,662,-29
11,70,1.5,97,9,88,1,0.762432362531399,0,0,128,0,226,0,-41
11,71,1.5,18,83,-65,0,1.16096061297412,0,0,124,0,341,142,-33
11,72,1.5,60,16,44,1,0.673240789365082,0,0,122,0,219,122,-34
11,73,1.5,22,86,-64,0,1.23645532175124,0,0,143,0,237,339,-36
11,74,1.5,51,2,49,1,0.592750995072493,0,0,269,0,90,160,-48
11,75,1.5,51,0,51,1,0.599980541393961,0,0,134,0,314,0,-50
11,76,1.5,28,64,-36,0,0.877811683535583,0,0,286,0,318,208,-14
11,77,1.5,51,4,47,1,0.441579246481524,0,0,286,0,117,0,-46
11,78,1.5,51,3,48,1,0.494810550909278,0,0,152,0,209,0,-47
11,79,1.5,43,66,-23,0,0.921999187459733,0,0,157,0,636,0,-16
11,80,1.5,98,40,58,1,0.811748077775519,0,0,136,0,526,0,-10
11,81,10,51,4,47,1,1.41513128448423,0,0,29,0,904,0,-46
11,82,10,2,58,-56,0,5.09655157080397,0,0,69,0,3239,238,-8
11,83,10,99,30,69,1,5.06496392632744,0,0,75,0,2208,259,-20
11,84,10,53,23,30,1,4.29143627963003,0,0,43,0,1504,366,-27
11,85,10,95,6,89,1,5.8767569407546,0,0,93,0,3393,146,-44
11,86,10,51,0,51,1,5.59898919185525,0,0,78,0,4547,0,-50
11,87,10,49,96,-47,0,5.64396035698701,0,0,99,0,1712,2754,-46
11,88,10,29,96,-67,1,4.94289782589294,0,0,123,0,2254,907,46
11,89,10,51,1,50,1,4.86206057626623,0,0,89,0,2629,354,-49
11,90,10,12,64,-52,0,4.16054493443698,0,0,62,0,944,1368,-14
11,91,10,24,91,-67,0,4.86926204843894,0,0,83,0,3860,0,-41
11,92,10,51,3,48,1,4.39846188083902,0,0,267,0,3661,0,-47
11,93,10,56,50,6,1,3.57110824073879,0,0,93,0,1852,634,0
11,94,10,49,100,-51,0,4.04807174072175,0,0,0,0,1130,1051,-50
11,95,10,51,2,49,1,3.08276746524007,0,0,103,0,2043,358,-48
11,96,10,19,69,-50,0,3.46787385721109,0,0,84,0,1866,608,-19
11,97,10,87,5,82,1,3.66215482088501,0,0,170,0,1184,295,-45
11,98,10,2,52,-50,0,5.11233346907557,0,0,77,0,2314,796,-2
11,99,10,49,96,-47,0,4.48078826788333,0,0,0,56,2257,943,-46
11,100,10,5,62,-57,0,4.08207436580597,0,0,76,0,2323,422,-12
11,101,1.5,49,99,-50,0,0.609648916257356,0,0,127,0,296,0,-49
11,102,1.5,32,94,-62,0,0.558844063594734,0,0,200,0,87,0,-44
11,103,1.5,51,4,47,1,0.574015877389684,0,0,267,0,288,0,-46
11,104,1.5,51,3,48,1,0.500547639215256,0,0,286,0,214,0,-47
11,105,1.5,23,50,-27,0,0.685726239105861,0,0,286,0,400,0,0
11,106,1.5,49,96,-47,0,0.758821966522191,0,0,267,0,234,0,-46
11,107,1.5,37,69,-32,0,0.581947579324151,0,0,286,0,188,0,-19
11,108,1.5,87,37,50,1,0.675121153640248,0,0,262,0,389,0,-13
11,109,1.5,56,33,23,1,0.565036073872761,0,0,275,0,279,0,-17
